time,gFx,gFy,gFz,ax,ay,az,wx,wy,wz
2025-05-24T06:13:47.906Z,-0.0893,0.9719,-0.1194,0.4747,-0.2228,0.3116,0.0042,-0.0894,-0.0424
2025-05-24T06:13:47.914Z,-0.1612,1.0125,-0.1339,0.6307,-0.2166,0.1911,0.0311,0.3315,0.0072
2025-05-24T06:13:47.925Z,-0.0837,0.9991,-0.098,0.3708,-0.1369,-0.0538,0.013,0.2788,0.0469
2025-05-24T06:13:47.934Z,-0.0432,1,-0.0902,-0.1867,-0.0966,-0.1482,0.0115,0.2048,0.0591
2025-05-24T06:13:47.945Z,-0.0323,0.981,-0.0939,-0.5443,-0.0949,-0.2151,0.0211,0.1281,0.0343
2025-05-24T06:13:47.955Z,-0.0575,0.9655,-0.0946,-0.5941,0.1132,-0.171,0.0123,0.0579,-0.0214
2025-05-24T06:13:47.964Z,-0.0575,0.9655,-0.0946,-0.3504,0.2427,-0.171,0.0211,0.0079,-0.0431
2025-05-24T06:13:47.975Z,-0.0902,0.9753,-0.0919,-0.3284,0.2439,-0.1959,0.0221,-0.0414,-0.0354
2025-05-24T06:13:47.984Z,-0.1206,0.9969,-0.1118,-0.015,0.1112,-0.188,0.0152,-0.0179,-0.0277
2025-05-24T06:13:47.996Z,-0.1206,0.9969,-0.1118,0.263,-0.0962,-0.0029,0.0157,0.0519,-0.0129
2025-05-24T06:13:48.005Z,-0.139,1.0058,-0.1185,0.4203,-0.1647,0.048,0.012,0.0761,0.0159
2025-05-24T06:13:48.014Z,-0.1321,1.0061,-0.1231,0.3357,-0.1712,0.1036,-0.004,0.0756,0.0434
2025-05-24T06:13:48.025Z,-0.115,0.9861,-0.1463,0.152,-0.0753,0.2791,-0.018,0.0786,0.0529
2025-05-24T06:13:48.034Z,-0.1161,0.9884,-0.1456,0.2018,0.0385,0.3117,-0.0228,0.0922,0.0566
2025-05-24T06:13:48.046Z,-0.1161,0.9884,-0.1456,0.1904,-0.0014,0.3191,-0.0395,0.0932,0.0641
2025-05-24T06:13:48.054Z,-0.0727,0.9949,-0.1227,-0.0267,-0.0642,0.3495,-0.0498,0.0683,0.0663
2025-05-24T06:13:48.064Z,-0.0727,0.9949,-0.1227,-0.1996,-0.0582,0.0414,-0.0441,0.0464,0.054
2025-05-24T06:13:48.075Z,-0.0977,0.9848,-0.0967,-0.0781,-0.0051,-0.2321,-0.0403,0.0519,0.0583
2025-05-24T06:13:48.084Z,-0.0977,0.9848,-0.0967,0.0685,0.0499,-0.1363,-0.0341,0.0724,0.0706
2025-05-24T06:13:48.096Z,-0.1089,0.9787,-0.1108,0.1824,0.106,-0.0144,-0.0314,0.0972,0.0836
2025-05-24T06:13:48.105Z,-0.0891,0.9902,-0.1158,0.1468,0.0852,0.0289,-0.0384,0.1107,0.0882
2025-05-24T06:13:48.115Z,-0.0695,0.9976,-0.107,-0.0325,-0.017,0.0281,-0.038,0.1035,0.0796
2025-05-24T06:13:48.125Z,-0.0674,0.998,-0.0934,-0.2033,-0.0723,-0.0694,-0.0296,0.0852,0.0651
2025-05-24T06:13:48.134Z,-0.0789,0.9977,-0.0895,-0.2053,-0.0792,-0.1907,-0.0322,0.0843,0.0532
2025-05-24T06:13:48.145Z,-0.0789,0.9977,-0.0895,-0.0746,-0.0684,-0.2104,-0.0297,0.1083,0.054
2025-05-24T06:13:48.155Z,-0.0646,0.9861,-0.1204,-0.0694,-0.0353,-0.0575,-0.0237,0.1072,0.0527
2025-05-24T06:13:48.164Z,-0.057,0.9691,-0.1282,-0.237,0.0663,0.1032,-0.0296,0.0718,0.0275
2025-05-24T06:13:48.175Z,-0.064,0.9769,-0.1183,-0.28,0.2113,0.1586,-0.0362,0.0576,-0.0059
2025-05-24T06:13:48.184Z,-0.0552,0.9688,-0.1105,-0.2408,0.1201,0.0562,-0.02,0.0582,-0.0106
2025-05-24T06:13:48.195Z,-0.0806,0.9654,-0.0944,-0.2915,0.235,-0.0137,-0.0192,0.0272,-0.0191
2025-05-24T06:13:48.205Z,-0.0976,1.0037,-0.0996,-0.0432,0.2031,-0.172,-0.0193,0.0613,-0.0116
2025-05-24T06:13:48.214Z,-0.1003,1.0179,-0.1065,0.1145,-0.1711,-0.0905,-0.017,0.0772,0.0115
2025-05-24T06:13:48.225Z,-0.0892,1.0036,-0.1013,0.1225,-0.2733,-0.0441,-0.0247,0.0823,0.0233
2025-05-24T06:13:48.234Z,-0.0959,0.9873,-0.0986,0.0217,-0.0985,-0.0958,-0.0226,0.0601,0.0138
2025-05-24T06:13:48.245Z,-0.0959,0.9873,-0.0986,0.1088,0.0234,-0.1214,-0.0312,0.0419,0.0316
2025-05-24T06:13:48.255Z,-0.1112,1.01,-0.105,0.152,-0.2506,-0.1409,-0.0346,0.0703,0.0513
2025-05-24T06:13:48.264Z,-0.1099,0.9808,-0.1193,0.2711,-0.1649,-0.0261,-0.0324,0.1026,0.0681
2025-05-24T06:13:48.275Z,-0.0876,0.9663,-0.1246,0.218,0.1152,0.0987,-0.0414,0.0925,0.0738
2025-05-24T06:13:48.284Z,-0.0712,0.9745,-0.1209,0.0166,0.2404,0.1465,-0.0445,0.0999,0.0675
2025-05-24T06:13:48.296Z,-0.0742,0.9895,-0.1067,-0.1298,0.1354,0.1031,-0.0421,0.0854,0.0535
2025-05-24T06:13:48.305Z,-0.0905,1.0002,-0.0902,-0.0634,-0.0037,-0.0398,-0.0505,0.0853,0.0592
2025-05-24T06:13:48.314Z,-0.1118,1.0092,-0.0916,0.1115,-0.0992,-0.1883,-0.0387,0.1125,0.0818
2025-05-24T06:13:48.325Z,-0.1015,1.0064,-0.113,0.3129,-0.1943,-0.1477,-0.0356,0.1455,0.1114
2025-05-24T06:13:48.334Z,-0.0728,0.9937,-0.1298,0.1669,-0.1355,0.087,-0.053,0.1563,0.1069
2025-05-24T06:13:48.345Z,-0.0532,0.9875,-0.1203,-0.0855,-0.0111,0.2078,-0.0513,0.1204,0.0719
2025-05-24T06:13:48.354Z,-0.0154,0.9741,-0.1115,-0.2906,0.0483,0.1167,-0.0525,0.0808,0.0281
2025-05-24T06:13:48.364Z,-0.0114,0.971,-0.1006,-0.6431,0.1836,0.0236,-0.0555,0.0226,-0.0266
2025-05-24T06:13:48.375Z,-0.0191,0.968,-0.1109,-0.653,0.2042,-0.0643,-0.0515,-0.021,-0.0547
2025-05-24T06:13:48.384Z,-0.0579,0.9675,-0.1169,-0.5657,0.2365,0.068,-0.0499,-0.0262,-0.0664
2025-05-24T06:13:48.395Z,-0.0579,0.9675,-0.1169,-0.1466,0.2214,0.0955,-0.0401,0.0134,-0.0558
2025-05-24T06:13:48.405Z,-0.108,1.0045,-0.1031,0.246,0.0398,0.0047,-0.0367,0.0613,-0.0221
2025-05-24T06:13:48.414Z,-0.102,1.009,-0.0947,0.2642,-0.1492,-0.0266,-0.0363,0.079,0.0004
2025-05-24T06:13:48.425Z,-0.0873,0.9924,-0.089,0.1938,-0.1678,-0.1143,-0.0365,0.0782,0.0047
2025-05-24T06:13:48.434Z,-0.0875,0.9815,-0.0886,0.0538,0.0071,-0.1583,-0.0363,0.0611,-0.0098
2025-05-24T06:13:48.444Z,-0.0974,0.9841,-0.0869,0.0771,0.0888,-0.165,-0.0283,0.075,-0.0129
2025-05-24T06:13:48.455Z,-0.1036,0.9885,-0.0943,0.173,0.0587,-0.1745,-0.0237,0.1069,0.0074
2025-05-24T06:13:48.464Z,-0.0935,0.9922,-0.123,0.2213,0.0281,-0.0647,-0.0321,0.1416,0.0298
2025-05-24T06:13:48.475Z,-0.0775,0.9677,-0.131,0.1055,-0.0166,0.2055,-0.0496,0.1242,0.0241
2025-05-24T06:13:48.484Z,-0.074,0.9749,-0.1208,-0.0543,0.2841,0.2612,-0.0376,0.1498,-0.0193
2025-05-24T06:13:48.495Z,-0.072,0.9897,-0.1171,-0.0478,0.1121,0.1508,-0.0148,0.1971,-0.0237
2025-05-24T06:13:48.504Z,-0.0702,0.9763,-0.1117,-0.0908,0.034,0.1281,-0.0487,0.1533,0.0075
2025-05-24T06:13:48.514Z,-0.0633,0.9729,-0.1037,-0.0941,0.1574,0.0656,-0.043,0.158,0.0409
2025-05-24T06:13:48.525Z,-0.0718,0.9731,-0.1044,-0.1626,0.1885,-0.0006,-0.0275,0.1823,0.0173
2025-05-24T06:13:48.534Z,-0.0504,0.9914,-0.0846,-0.0674,0.1684,0.0152,-0.0553,0.1615,-0.0366
2025-05-24T06:13:48.544Z,-0.042,1.0148,-0.038,-0.3229,-0.035,-0.2314,-0.0445,0.1103,-0.0911
2025-05-24T06:13:48.554Z,-0.0317,0.9687,-0.0495,-0.3819,-0.222,-0.6571,0.0356,0.1146,0.049
2025-05-24T06:13:48.564Z,-0.1208,0.94,-0.0661,-0.4297,0.2946,-0.4992,0.021,0.0654,0.0477
2025-05-24T06:13:48.574Z,-0.1285,1.0064,-0.1287,0.5105,0.4758,-0.3133,-0.0206,0.1667,0.0168
2025-05-24T06:13:48.584Z,-0.0755,1.0279,-0.1499,0.4003,-0.2378,0.3273,0.0078,0.2638,0.137
2025-05-24T06:13:48.594Z,-0.1051,0.9449,-0.103,-0.0168,-0.2599,0.3995,0.041,0.2597,0.2508
2025-05-24T06:13:48.605Z,-0.1314,0.9747,-0.0993,0.3558,0.496,-0.0541,-0.0081,0.2196,0.2983
2025-05-24T06:13:48.614Z,-0.1044,1.0494,-0.126,0.5763,0.0815,-0.0205,-0.0139,0.2582,0.3435
2025-05-24T06:13:48.625Z,-0.0974,1.0996,-0.1194,0.3323,-0.653,0.2048,-0.0122,0.3183,0.39
2025-05-24T06:13:48.634Z,-0.11,1.0146,-0.1353,0.3493,-1.0297,0.1373,-0.0506,0.339,0.4058
2025-05-24T06:13:48.644Z,-0.0938,0.9502,-0.1426,0.5036,-0.0604,0.3381,-0.1134,0.2335,0.35
2025-05-24T06:13:48.655Z,-0.0187,1.009,-0.1189,0.3104,0.3891,0.3568,-0.1204,0.1362,0.3298
2025-05-24T06:13:48.664Z,-0.0033,1.0666,-0.1008,-0.4071,-0.238,0.1384,-0.1284,0.0886,0.3186
2025-05-24T06:13:48.675Z,-0.0347,1.0613,-0.108,-0.4142,-0.754,-0.0098,-0.1482,0.1033,0.3053
2025-05-24T06:13:48.684Z,-0.0383,0.9999,-0.1338,-0.0886,-0.5925,0.1121,-0.1625,0.1053,0.3212
2025-05-24T06:13:48.694Z,-0.0359,0.9818,-0.1206,-0.0567,0.0057,0.3563,-0.1668,0.0788,0.3339
2025-05-24T06:13:48.706Z,-0.0366,0.9913,-0.0944,-0.0032,0.0409,-0.0383,-0.1686,0.0756,0.3134
2025-05-24T06:13:48.714Z,-0.0405,0.9709,-0.0696,-0.0032,0.0409,-0.0383,-0.1459,0.0965,0.2993
2025-05-24T06:13:48.725Z,-0.0841,0.9775,-0.07,0.5569,0.128,-0.1799,-0.1397,0.181,0.3272
2025-05-24T06:13:48.734Z,-0.0885,1.0373,-0.0902,0.5569,0.128,-0.1799,-0.1337,0.3321,0.343
2025-05-24T06:13:48.744Z,-0.0452,1.0514,-0.0639,0.5775,-0.4869,-0.0365,-0.0969,0.287,0.5426
2025-05-24T06:13:48.754Z,-0.0452,1.0514,-0.0639,0.2039,-0.5072,-0.2944,-0.0787,0.0339,0.7958
2025-05-24T06:13:48.764Z,0.0315,1.0362,-0.0537,0.034,-0.4236,-0.5331,-0.1147,-0.2281,0.9786
2025-05-24T06:13:48.775Z,0.0146,0.997,-0.0764,0.009,0.0602,-0.0356,-0.1407,-0.3976,0.9073
2025-05-24T06:13:48.785Z,0.0089,0.9436,-0.1492,-0.0665,0.5917,0.6754,-0.1434,-0.2051,0.681
2025-05-24T06:13:48.794Z,0.0655,0.8872,-0.1704,-0.0665,0.5917,0.6754,-0.1473,0.0772,0.4174
2025-05-24T06:13:48.805Z,0.0701,0.8871,-0.1208,-0.5403,1.0369,0.271,-0.1084,0.1885,0.2079
2025-05-24T06:13:48.814Z,0.0744,0.935,-0.0757,-0.5403,1.0369,0.271,-0.0601,0.2736,0.0868
2025-05-24T06:13:48.825Z,0.0083,1.0048,-0.0929,0.2073,-0.1558,0.1288,-0.0136,0.5222,-0.0136
2025-05-24T06:13:48.835Z,-0.0384,1.0334,-0.0968,0.5468,-0.3534,0.1073,0.0147,0.7066,-0.0428
2025-05-24T06:13:48.845Z,0.0049,1.0111,-0.0765,0.0734,-0.1082,-0.093,0.0194,0.7269,0.0227
2025-05-24T06:13:48.855Z,0.0551,0.9819,-0.0534,-0.3623,0.1689,-0.3362,0.0123,0.5486,0.1476
2025-05-24T06:13:48.864Z,0.0445,0.9747,-0.0312,-0.1675,0.2012,-0.5089,-0.0241,0.3479,0.1517
2025-05-24T06:13:48.875Z,0.0358,0.9761,-0.0486,-0.149,0.2274,-0.3039,-0.0454,0.2578,0.1597
2025-05-24T06:13:48.885Z,0.0504,0.9544,-0.0582,-0.2093,0.4022,-0.2353,-0.0419,0.1119,0.1966
2025-05-24T06:13:48.895Z,0.026,0.9777,-0.0833,0.0413,0.1466,0.0491,-0.0999,-0.0084,0.1771
2025-05-24T06:13:48.904Z,0.0124,1.0125,-0.0953,0.1675,-0.2404,0.1479,-0.142,-0.0184,-0.0528
2025-05-24T06:13:48.914Z,-0.013,1.1426,-0.0968,0.2745,-1.6094,0.1814,0.0117,0.6259,-0.6889
2025-05-24T06:13:48.925Z,0.055,1.1382,-0.114,-0.564,-1.1065,0.3441,0.0678,1.1192,-0.9958
2025-05-24T06:13:48.934Z,0.1306,0.8446,-0.0842,-1.2991,1.7833,-0.0502,-0.1205,0.5879,-0.8674
2025-05-24T06:13:48.944Z,0.1143,0.7435,-0.0411,-1.0713,2.4077,-0.3154,-0.1692,-0.0922,-0.6084
2025-05-24T06:13:48.955Z,0.0085,0.882,-0.1131,0.0204,0.8811,0.4083,-0.0727,-0.0847,-0.4178
2025-05-24T06:13:48.964Z,-0.1223,1.0794,-0.1053,1.1698,-1.0027,0.1908,-0.0539,0.2162,-0.3423
2025-05-24T06:13:48.975Z,-0.0993,1.1665,-0.0349,0.7395,-1.6438,-0.4608,-0.0756,0.3079,-0.2218
2025-05-24T06:13:48.984Z,-0.0181,1.1005,-0.0296,0.0194,-0.8906,-0.4037,-0.0694,0.2219,-0.0081
2025-05-24T06:13:48.994Z,-0.0233,0.9974,-0.0748,0.1646,0.096,0.059,-0.0731,0.1633,0.1033
2025-05-24T06:13:49.005Z,-0.0393,0.9458,-0.1096,0.2431,0.524,0.3662,-0.0786,0.2039,0.0784
2025-05-24T06:13:49.014Z,0.0285,0.9476,-0.0955,-0.4888,0.4573,0.1565,-0.0789,0.1619,0.0135
2025-05-24T06:13:49.025Z,0.0967,0.9806,-0.0564,-1.0681,0.1205,-0.1734,-0.099,-0.0103,-0.0468
2025-05-24T06:13:49.034Z,0.0586,1.0068,-0.0701,-0.5874,-0.102,0.008,-0.1143,-0.0759,-0.0914
2025-05-24T06:13:49.045Z,-0.0249,1.0075,-0.0821,0.1949,-0.0819,0.1122,-0.1078,-0.0014,-0.1101
2025-05-24T06:13:49.055Z,-0.0584,0.9991,-0.0826,0.4367,0.0047,0.1139,-0.0982,0.1396,-0.1006
2025-05-24T06:13:49.064Z,-0.0442,0.9694,-0.0679,0.249,0.3083,-0.0126,-0.0901,0.179,-0.0842
2025-05-24T06:13:49.075Z,-0.0115,0.9661,-0.0699,-0.0591,0.2798,-0.0035,-0.0695,0.2556,-0.0824
2025-05-24T06:13:49.084Z,0.0047,1.007,-0.0376,-0.2242,-0.1361,-0.3494,-0.0625,0.2539,-0.1017
2025-05-24T06:13:49.095Z,0.0163,1.0213,-0.0146,-0.3288,-0.2176,-0.5069,-0.057,0.1828,-0.1065
2025-05-24T06:13:49.105Z,0.0058,1.001,-0.0387,-0.2144,0.0023,-0.2438,-0.0488,0.139,-0.0994
2025-05-24T06:13:49.114Z,-0.0124,0.9773,-0.055,-0.0659,0.2147,-0.1072,-0.0461,0.1093,-0.0987
2025-05-24T06:13:49.125Z,-0.0075,0.9722,-0.0608,-0.1448,0.2529,-0.0373,-0.0379,0.0435,-0.0982
2025-05-24T06:13:49.134Z,-0.0005,0.971,-0.0794,-0.2116,0.2582,0.1647,-0.0411,0.0121,-0.112
2025-05-24T06:13:49.145Z,0.0019,0.9797,-0.0854,-0.2449,0.1456,0.1714,-0.0502,0.008,-0.129
2025-05-24T06:13:49.155Z,-0.0043,1.0023,-0.0537,-0.1764,-0.0741,-0.1542,-0.0488,0.0031,-0.1511
2025-05-24T06:13:49.164Z,-0.035,1.0191,-0.0308,0.1345,-0.2157,-0.3394,-0.047,0.0218,-0.1722
2025-05-24T06:13:49.175Z,-0.0824,1.0018,-0.0475,0.5835,0.004,-0.1256,-0.0436,0.1143,-0.2101
2025-05-24T06:13:49.184Z,-0.1009,0.9619,-0.0703,0.6771,0.37,0.0687,-0.0281,0.2297,-0.2475
2025-05-24T06:13:49.195Z,-0.0657,0.9874,-0.0638,0.2621,0.0515,-0.0241,-0.0154,0.2541,-0.2097
2025-05-24T06:13:49.205Z,-0.0212,0.9843,-0.0435,-0.2473,0.1315,-0.2735,-0.0309,0.1716,-0.1485
2025-05-24T06:13:49.214Z,0.0284,1.0211,0.0099,-0.5078,-0.2848,-0.7139,-0.0434,-0.0624,-0.0639
2025-05-24T06:13:49.226Z,-0.0812,1.0276,-0.045,0.5342,-0.2501,-0.087,-0.0398,0.0386,-0.0748
2025-05-24T06:13:49.234Z,-0.1357,0.9986,-0.085,0.9608,-0.0116,0.1965,-0.0235,0.2617,-0.1138
2025-05-24T06:13:49.245Z,-0.0708,1.012,-0.0682,0.2554,-0.1735,-0.0076,-0.0132,0.2458,-0.0366
2025-05-24T06:13:49.255Z,-0.0589,1.019,-0.063,0.2598,-0.1891,0.0689,-0.028,0.1703,0.0227
2025-05-24T06:13:49.264Z,-0.0658,1.0102,-0.1325,0.2618,-0.1523,0.7299,-0.02,0.3799,0.043
2025-05-24T06:13:49.276Z,-0.0364,1.038,-0.1119,-0.0189,-0.4039,0.366,-0.0122,0.4651,0.0326
2025-05-24T06:13:49.284Z,-0.001,1.0119,-0.0622,-0.3924,-0.0959,0.0144,-0.0364,0.3206,0.0164
2025-05-24T06:13:49.294Z,0.0328,0.9938,-0.0999,-0.6407,0.032,0.3947,-0.0714,0.2408,0.0103
2025-05-24T06:13:49.305Z,-0.011,1.0069,-0.0888,-0.1544,-0.1228,0.2327,-0.0795,0.1938,-0.0088
2025-05-24T06:13:49.314Z,-0.0562,1.0173,-0.0705,0.2527,-0.1765,0.07,-0.0922,0.1788,-0.018
2025-05-24T06:13:49.326Z,-0.0533,1.0056,-0.0745,0.1205,-0.0884,0.1682,-0.0953,0.2451,0.0017
2025-05-24T06:13:49.334Z,-0.0285,1.0136,-0.0708,-0.0318,-0.1531,0.0603,-0.0858,0.2811,0.0178
2025-05-24T06:13:49.345Z,-0.0431,1.0015,-0.0507,0.0674,-0.0364,-0.0625,-0.093,0.2816,0.0086
2025-05-24T06:13:49.355Z,-0.0372,0.9909,-0.0659,0.0549,0.0938,0.0804,-0.108,0.2833,0.003
2025-05-24T06:13:49.364Z,-0.0631,0.9725,-0.0676,0.2881,0.2555,0.1237,-0.1174,0.2747,-0.0099
2025-05-24T06:13:49.376Z,-0.0502,0.9774,-0.09,0.1191,0.1756,0.3594,-0.1256,0.308,0.0047
2025-05-24T06:13:49.384Z,-0.0354,1.0028,-0.0973,0.0111,-0.0874,0.4083,-0.1506,0.3404,0.0209
2025-05-24T06:13:49.395Z,-0.032,1.0277,-0.0868,-0.0268,-0.3106,0.3237,-0.1895,0.3296,0.0315
2025-05-24T06:13:49.405Z,-0.0301,1.0198,-0.0891,-0.0121,-0.1731,0.4021,-0.2187,0.3066,0.0358
2025-05-24T06:13:49.414Z,-0.0365,0.987,-0.1045,0.0412,0.1369,0.5487,-0.255,0.2988,0.0507
2025-05-24T06:13:49.426Z,-0.0374,0.9739,-0.095,0.0683,0.2372,0.4724,-0.2898,0.2691,0.0601
2025-05-24T06:13:49.434Z,-0.0397,0.9816,-0.0832,0.0883,0.1482,0.3817,-0.3184,0.2257,0.0747
2025-05-24T06:13:49.445Z,-0.0376,0.9906,-0.0733,0.0673,0.0694,0.3255,-0.3579,0.1809,0.0868
2025-05-24T06:13:49.455Z,-0.033,1.0002,-0.0644,0.0468,-0.0205,0.2789,-0.3976,0.1277,0.1047
2025-05-24T06:13:49.464Z,-0.0364,1.0033,-0.063,0.0919,-0.0323,0.3306,-0.4342,0.0923,0.1173
2025-05-24T06:13:49.476Z,-0.0505,0.998,-0.0673,0.2612,0.0155,0.3997,-0.4763,0.0751,0.1307
2025-05-24T06:13:49.484Z,-0.0581,0.9998,-0.063,0.3271,-0.0114,0.4115,-0.508,0.0504,0.162
2025-05-24T06:13:49.495Z,-0.0618,1.0004,-0.0601,0.3889,-0.0078,0.4339,-0.5284,0.052,0.1891
2025-05-24T06:13:49.505Z,-0.0606,0.9989,-0.0591,0.3885,0.0082,0.4783,-0.5494,0.0896,0.2178
2025-05-24T06:13:49.514Z,-0.0581,0.9912,-0.0607,0.3753,0.0957,0.5441,-0.5627,0.1323,0.2453
2025-05-24T06:13:49.526Z,-0.0347,0.9822,-0.0495,0.151,0.1739,0.4662,-0.5815,0.1726,0.2663
2025-05-24T06:13:49.534Z,-0.0121,0.989,-0.0186,-0.0283,0.0913,0.2182,-0.5967,0.1448,0.2708
2025-05-24T06:13:49.545Z,-0.0048,0.9985,-0.0097,-0.061,-0.0035,0.2282,-0.601,0.1255,0.2601
2025-05-24T06:13:49.555Z,-0.0126,1.0147,-0.0109,0.0562,-0.1561,0.2683,-0.6099,0.1062,0.2412
2025-05-24T06:13:49.564Z,-0.0172,1.0139,0.0123,0.1028,-0.121,0.0877,-0.6148,0.1095,0.2293
2025-05-24T06:13:49.576Z,0.0037,0.9944,0.0373,-0.1136,0.0764,-0.0814,-0.6078,0.1312,0.2304
2025-05-24T06:13:49.584Z,0.0415,0.9801,0.0428,-0.4629,0.1946,-0.0521,-0.5977,0.1483,0.2246
2025-05-24T06:13:49.595Z,0.0644,0.9721,0.0384,-0.6514,0.2798,0.0308,-0.5867,0.1363,0.1766
2025-05-24T06:13:49.604Z,0.0757,0.9656,0.0462,-0.7565,0.3091,0.0092,-0.5721,0.1252,0.1216
2025-05-24T06:13:49.614Z,0.0826,0.9856,0.0557,-0.7767,0.1095,-0.0359,-0.5662,0.0995,0.0685
2025-05-24T06:13:49.625Z,0.052,0.9843,0.0615,-0.4471,0.1549,-0.0223,-0.5633,0.0563,0.027
2025-05-24T06:13:49.634Z,0.0099,0.9713,0.0589,-0.053,0.2721,0.0476,-0.5563,0.0321,0.0057
2025-05-24T06:13:49.646Z,-0.007,0.9785,0.0685,0.073,0.1632,-0.0026,-0.5271,0.1197,0.0189
2025-05-24T06:13:49.655Z,0.0056,0.9955,0.0814,-0.0767,0.009,-0.0786,-0.4992,0.1649,0.0088
2025-05-24T06:13:49.664Z,0.0256,0.9891,0.0945,-0.2647,0.0984,-0.165,-0.4992,0.1649,0.0088
2025-05-24T06:13:49.676Z,0.0446,0.9763,0.1047,-0.4485,0.1995,-0.2113,-0.4892,0.1862,-0.0103
2025-05-24T06:13:49.684Z,0.0349,0.98,0.1243,-0.2957,0.1466,-0.3809,-0.4685,0.147,-0.0583
2025-05-24T06:13:49.696Z,-0.0065,0.9853,0.1393,0.0885,0.0862,-0.456,-0.4309,0.2074,-0.0781
2025-05-24T06:13:49.706Z,-0.0284,0.9988,0.1301,0.2726,-0.0518,-0.2916,-0.4201,0.2593,-0.0576
2025-05-24T06:13:49.714Z,-0.0369,1.0135,0.1181,0.3395,-0.2001,-0.1549,-0.4201,0.2593,-0.0576
2025-05-24T06:13:49.725Z,-0.0375,1.0181,0.1176,0.3073,-0.2259,-0.1174,-0.4123,0.2866,-0.045
2025-05-24T06:13:49.735Z,-0.0175,1.0089,0.1046,0.1014,-0.1351,0.0603,-0.4024,0.3384,-0.0142
2025-05-24T06:13:49.745Z,-0.0052,1.0122,0.1013,0.0116,-0.1978,0.1137,-0.4031,0.3375,-0.0007
2025-05-24T06:13:49.755Z,-0.0157,1.0173,0.104,0.1159,-0.2189,0.1342,-0.4137,0.3509,0.0206
2025-05-24T06:13:49.764Z,-0.0237,0.9897,0.102,0.1762,0.065,0.1792,-0.4137,0.3509,0.0206
2025-05-24T06:13:49.776Z,-0.0113,0.9696,0.1151,0.0314,0.2251,0.0766,-0.419,0.2971,0.0737
2025-05-24T06:13:49.784Z,0.0146,0.9812,0.1457,-0.2206,0.0709,-0.2113,-0.413,0.2627,0.0627
2025-05-24T06:13:49.801Z,0.022,1.001,0.1793,-0.2607,-0.1134,-0.4857,-0.4108,0.2157,0.0355
2025-05-24T06:13:49.804Z,0.0151,1.001,0.1952,-0.1858,-0.0854,-0.5679,-0.4172,0.1466,0.026
2025-05-24T06:13:49.814Z,0.0099,0.9771,0.1851,-0.131,0.1609,-0.3988,-0.4218,0.1088,0.0199
2025-05-24T06:13:49.826Z,-0.011,0.958,0.1619,0.0912,0.3148,-0.1506,-0.4167,0.1015,0.0064
2025-05-24T06:13:49.835Z,-0.0465,0.9702,0.1551,0.4431,0.1516,-0.0448,-0.4142,0.154,-0.0061
2025-05-24T06:13:49.845Z,-0.0841,1.0069,0.1047,0.6204,-0.0832,0.2346,-0.4306,0.2228,-0.002
2025-05-24T06:13:49.854Z,-0.0841,1.0069,0.1047,0.7983,-0.1934,0.5254,-0.4306,0.2228,-0.002
2025-05-24T06:13:49.864Z,-0.1177,0.9982,0.1161,1.1376,-0.0829,0.4158,-0.4258,0.2881,0.0155
2025-05-24T06:13:49.876Z,-0.1716,0.9724,0.1371,1.6845,0.1643,0.27,-0.4219,0.4007,0.0348
2025-05-24T06:13:49.885Z,-0.192,0.9855,0.1593,1.9294,0.1775,0.2309,-0.4066,0.5223,0.1111
2025-05-24T06:13:49.895Z,-0.154,1.019,0.1844,1.788,-0.0444,0.1048,-0.385,0.595,0.2632
2025-05-24T06:13:49.905Z,-0.074,1.0477,0.1952,1.384,-0.3807,-0.0973,-0.3684,0.6157,0.5287
2025-05-24T06:13:49.914Z,-0.074,1.0477,0.1952,0.6261,-0.6525,-0.1473,-0.3479,0.549,0.8107
2025-05-24T06:13:49.925Z,-0.0255,1.0509,0.2125,0.3114,-0.643,-0.3214,-0.3258,0.5219,0.899
2025-05-24T06:13:49.935Z,0.0891,0.9605,0.2511,0.1139,-0.2233,-0.5603,-0.2828,0.5886,0.8829
2025-05-24T06:13:49.945Z,0.1611,0.9341,0.27,-0.7845,0.2532,-0.6107,-0.2546,0.4904,0.7976
2025-05-24T06:13:49.955Z,0.1873,0.9278,0.2724,-1.3381,0.4748,-0.7891,-0.2555,0.3032,0.6594
2025-05-24T06:13:49.965Z,0.2135,0.924,0.2471,-1.543,0.5114,-0.7233,-0.2524,0.1833,0.4995
2025-05-24T06:13:49.976Z,0.2135,0.924,0.2471,-1.7194,0.5576,-0.4852,-0.2233,0.0697,0.305
2025-05-24T06:13:49.985Z,0.1065,0.9237,0.2608,-1.2624,0.6466,-0.6382,-0.1982,-0.011,0.1986
2025-05-24T06:13:49.995Z,0.0572,0.9566,0.2321,-0.5518,0.4993,-0.5546,-0.1897,-0.0246,0.1964
2025-05-24T06:13:50.005Z,0.0138,0.9848,0.2193,-0.0623,0.1705,-0.2628,-0.1669,0.0131,0.2242
2025-05-24T06:13:50.014Z,-0.015,0.9996,0.225,0.3686,-0.0958,-0.1437,-0.1387,0.0692,0.2476
2025-05-24T06:13:50.026Z,-0.0057,1.0076,0.2251,0.638,-0.226,-0.1991,-0.1161,0.1291,0.2811
2025-05-24T06:13:50.035Z,-0.0057,1.0076,0.2251,0.518,-0.3004,-0.1696,-0.1014,0.168,0.3036
2025-05-24T06:13:50.044Z,0.0372,0.9943,0.2261,0.2469,-0.2774,-0.0838,-0.0891,0.1672,0.281
2025-05-24T06:13:50.055Z,0.0894,0.9888,0.2169,0.1431,-0.1717,-0.1758,-0.0646,0.1904,0.2608
2025-05-24T06:13:50.064Z,0.1324,0.9814,0.2143,-0.3851,-0.1201,-0.0523,-0.0559,0.1721,0.2271
2025-05-24T06:13:50.076Z,0.1272,0.9648,0.235,-0.7224,-0.041,-0.0686,-0.0532,0.0965,0.1788
2025-05-24T06:13:50.084Z,0.1098,0.9555,0.2394,-0.6379,0.129,-0.26,-0.0403,0.0544,0.1483
2025-05-24T06:13:50.094Z,0.0787,0.9633,0.2464,-0.4336,0.1961,-0.2883,-0.0287,0.0521,0.1323
2025-05-24T06:13:50.105Z,0.0572,0.9638,0.2408,-0.1127,0.1148,-0.3645,-0.0207,0.0845,0.1397
2025-05-24T06:13:50.114Z,0.0389,0.9417,0.2196,0.0956,0.1336,-0.2624,-0.0258,0.1088,0.1497
2025-05-24T06:13:50.125Z,0.0379,0.9227,0.2182,0.2747,0.3623,-0.0727,-0.0293,0.1185,0.1576
2025-05-24T06:13:50.134Z,0.0594,0.9282,0.214,0.2655,0.5174,-0.0673,-0.0131,0.1347,0.155
2025-05-24T06:13:50.144Z,0.0916,0.9583,0.201,0.0537,0.4289,-0.0108,-0.0082,0.1674,0.1436
2025-05-24T06:13:50.155Z,0.1094,0.9812,0.2164,-0.2627,0.1257,0.0992,0.0048,0.2329,0.1151
2025-05-24T06:13:50.164Z,0.0656,0.9869,0.2117,-0.3782,-0.0803,-0.0695,0.0758,0.5141,0.0531
2025-05-24T06:13:50.175Z,0.0144,0.9735,0.2087,0.1239,-0.1222,0.0231,0.0936,0.6949,0.0277
2025-05-24T06:13:50.184Z,0.0822,0.9218,0.2315,0.4965,0.067,-0.0038,0.0729,0.59,0.1247
2025-05-24T06:13:50.194Z,0.1158,0.8848,0.2462,-0.2426,0.588,-0.2363,0.0767,0.4551,0.224
2025-05-24T06:13:50.205Z,0.0363,0.8929,0.2532,-0.3988,0.9085,-0.3682,0.1006,0.4657,0.2289
2025-05-24T06:13:50.214Z,-0.0064,0.9382,0.2569,0.4236,0.7704,-0.4429,0.11,0.495,0.2154
2025-05-24T06:13:50.225Z,0.0101,0.9917,0.266,0.7618,0.2994,-0.4923,0.1125,0.4508,0.2328
2025-05-24T06:13:50.234Z,0.053,1.0223,0.2394,0.5781,-0.2175,-0.5668,0.1136,0.4154,0.2632
2025-05-24T06:13:50.244Z,0.1129,1.0186,0.2086,0.1289,-0.4665,-0.2701,0.1193,0.4276,0.2538
2025-05-24T06:13:50.255Z,0.1488,0.9971,0.2076,-0.4352,-0.3974,-0.0122,0.1286,0.4444,0.2254
2025-05-24T06:13:50.264Z,0.1528,0.972,0.2108,-0.73,-0.1769,-0.0366,0.1085,0.3444,0.1951
2025-05-24T06:13:50.275Z,0.122,0.9708,0.218,-0.71,0.0513,-0.0806,0.0858,0.1608,0.1641
2025-05-24T06:13:50.284Z,0.0964,0.9937,0.2102,-0.3842,0.027,-0.1483,0.0841,0.0584,0.1529
2025-05-24T06:13:50.294Z,0.0657,1.0097,0.1931,-0.1217,-0.2026,-0.0559,0.0872,0.0723,0.1473
2025-05-24T06:13:50.305Z,0.0559,1.0076,0.1874,0.1924,-0.3379,0.0932,0.0909,0.1379,0.1517
2025-05-24T06:13:50.314Z,0.0747,0.9918,0.1895,0.2438,-0.2868,0.1311,0.1006,0.1793,0.1749
2025-05-24T06:13:50.325Z,0.0649,0.9825,0.1947,0.0837,-0.1333,0.0898,0.1009,0.1614,0.1721
2025-05-24T06:13:50.334Z,0.054,0.9803,0.1936,0.2231,-0.0565,0.0336,0.0982,0.1678,0.1618
2025-05-24T06:13:50.344Z,0.0602,0.9782,0.1947,0.3111,-0.0306,0.0399,0.1083,0.2001,0.1617
2025-05-24T06:13:50.355Z,0.0722,0.9787,0.1948,0.2538,-0.0098,0.017,0.1206,0.2187,0.1647
2025-05-24T06:13:50.364Z,0.0909,0.9813,0.1892,0.1393,-0.0271,0.0178,0.1201,0.2217,0.158
2025-05-24T06:13:50.375Z,0.1072,0.9791,0.2079,-0.0331,-0.0392,0.0448,0.1248,0.1836,0.14
2025-05-24T06:13:50.384Z,0.1204,0.9747,0.2202,-0.184,-0.0144,-0.167,0.135,0.1224,0.1148
2025-05-24T06:13:50.394Z,0.131,0.9705,0.2167,-0.2971,0.0341,-0.2661,0.1355,0.0769,0.0941
2025-05-24T06:13:50.405Z,0.1444,0.9655,0.2161,-0.4004,0.0683,-0.2553,0.1367,0.0291,0.0744
2025-05-24T06:13:50.414Z,0.1273,0.9653,0.2171,-0.5006,0.1166,-0.2643,0.1385,-0.0546,0.0332
2025-05-24T06:13:50.425Z,0.1074,0.9697,0.2113,-0.3034,0.1205,-0.2874,0.1351,-0.112,0.0084
2025-05-24T06:13:50.434Z,0.0973,0.9729,0.201,-0.1231,0.0701,-0.2254,0.1396,-0.1322,0.0044
2025-05-24T06:13:50.444Z,0.0818,0.9742,0.193,-0.0231,0.0512,-0.1499,0.1429,-0.145,0.0026
2025-05-24T06:13:50.455Z,0.0771,0.9741,0.1866,0.1325,0.0386,-0.0925,0.1435,-0.1394,0.0024
2025-05-24T06:13:50.464Z,0.0897,0.9768,0.1824,0.162,0.0497,-0.0355,0.1504,-0.1294,0.0144
2025-05-24T06:13:50.474Z,0.093,0.9765,0.1797,0.0284,0.0219,-0.0244,0.1501,-0.1314,0.0153
2025-05-24T06:13:50.484Z,0.0846,0.9761,0.1792,0.0167,0.0418,-0.0204,0.1505,-0.1382,0.0063
2025-05-24T06:13:50.494Z,0.0867,0.9811,0.1774,0.1047,0.0222,-0.023,0.1543,-0.1288,0.0105
2025-05-24T06:13:50.505Z,0.092,0.9807,0.1758,0.0745,-0.0183,-0.018,0.1531,-0.1226,0.0158
2025-05-24T06:13:50.514Z,0.099,0.9683,0.1717,0.0292,0.0086,-0.0284,0.1583,-0.141,0.0083
2025-05-24T06:13:50.526Z,0.1161,0.9615,0.1774,-0.2143,0.1927,-0.0865,0.1637,-0.1651,-0.0051
2025-05-24T06:13:50.534Z,0.1198,0.9677,0.1897,-0.2143,0.1927,-0.0865,0.17,-0.1955,-0.0277
2025-05-24T06:13:50.544Z,0.1129,0.9805,0.1946,-0.2251,0.1185,-0.2264,0.1798,-0.2214,-0.0497
2025-05-24T06:13:50.556Z,0.1172,0.9886,0.1796,-0.2166,-0.0762,-0.1312,0.188,-0.2175,-0.0603
2025-05-24T06:13:50.564Z,0.1189,0.991,0.1672,-0.2166,-0.0762,-0.1312,0.1913,-0.2091,-0.0791
2025-05-24T06:13:50.576Z,0.1256,0.9881,0.1643,-0.3126,-0.0475,-0.0533,0.1979,-0.2193,-0.1049
2025-05-24T06:13:50.584Z,0.1187,0.9854,0.1633,-0.3126,-0.0475,-0.0533,0.1956,-0.2258,-0.1118
2025-05-24T06:13:50.594Z,0.1132,0.9862,0.1575,-0.2394,-0.0209,-0.0449,0.1995,-0.2161,-0.1053
2025-05-24T06:13:50.605Z,0.0974,0.9801,0.1606,-0.0369,0.0445,-0.0749,0.2052,-0.2273,-0.0937
2025-05-24T06:13:50.614Z,0.0869,0.9773,0.1532,-0.0369,0.0445,-0.0749,0.2054,-0.2513,-0.0821
2025-05-24T06:13:50.626Z,0.0863,0.9807,0.1469,0.0415,0.0356,0.0069,0.2046,-0.2588,-0.0718
2025-05-24T06:13:50.635Z,0.0813,0.9818,0.1519,0.0957,0.029,-0.0732,0.2061,-0.2699,-0.0693
2025-05-24T06:13:50.644Z,0.07,0.9817,0.1611,0.0957,0.029,-0.0732,0.2143,-0.2915,-0.0673
2025-05-24T06:13:50.655Z,0.0594,0.9813,0.1667,0.3092,0.046,-0.2533,0.2231,-0.2865,-0.0596
2025-05-24T06:13:50.664Z,0.0515,0.99,0.1626,0.3092,0.046,-0.2533,0.2322,-0.2501,-0.0394
2025-05-24T06:13:50.676Z,0.0555,1.002,0.1529,0.3292,-0.1507,-0.1614,0.2373,-0.2146,-0.0126
2025-05-24T06:13:50.685Z,0.068,0.9992,0.1433,0.1976,-0.1042,-0.0886,0.2392,-0.1839,0.0118
2025-05-24T06:13:50.695Z,0.0824,0.9866,0.133,0.0729,0.0166,-0.0184,0.2384,-0.1812,0.0269
2025-05-24T06:13:50.705Z,0.0843,0.9829,0.1294,0.0707,0.0484,-0.0233,0.2383,-0.2077,0.0245
2025-05-24T06:13:50.714Z,0.0814,0.9888,0.129,0.0707,0.0484,-0.0233,0.233,-0.2286,0.0263
2025-05-24T06:13:50.725Z,0.0858,0.9991,0.133,0.0731,-0.1224,-0.1113,0.2404,-0.2233,0.0461
2025-05-24T06:13:50.734Z,0.0767,1.0069,0.1365,0.1838,-0.1854,-0.1614,0.2466,-0.2215,0.0764
2025-05-24T06:13:50.745Z,0.0652,1.0058,0.133,0.3046,-0.1644,-0.1581,0.2429,-0.2135,0.1128
2025-05-24T06:13:50.755Z,0.0551,1.001,0.1324,0.4145,-0.1164,-0.1871,0.2403,-0.2025,0.1455
2025-05-24T06:13:50.764Z,0.0493,1.0005,0.133,0.4838,-0.1157,-0.207,0.2406,-0.2018,0.1872
2025-05-24T06:13:50.775Z,0.0453,1.0058,0.1316,0.5649,-0.1713,-0.2105,0.2316,-0.2136,0.2334
2025-05-24T06:13:50.784Z,0.0255,1.0069,0.1272,0.8038,-0.1842,-0.1919,0.2153,-0.2221,0.2895
2025-05-24T06:13:50.795Z,0.0043,1.0109,0.1212,1.0464,-0.2221,-0.1506,0.2012,-0.2054,0.3623
2025-05-24T06:13:50.804Z,-0.015,1.0241,0.1119,1.2725,-0.3739,-0.0825,0.1842,-0.1668,0.46
2025-05-24T06:13:50.814Z,-0.0333,1.0442,0.1042,1.5202,-0.5762,-0.0147,0.1547,-0.1323,0.5817
2025-05-24T06:13:50.825Z,-0.0482,1.0583,0.093,1.7288,-0.7023,0.084,0.1164,-0.0993,0.7256
2025-05-24T06:13:50.834Z,-0.0549,1.0613,0.0847,1.878,-0.7492,0.1423,0.0749,-0.0342,0.887
2025-05-24T06:13:50.845Z,-0.0561,1.0661,0.0886,1.9966,-0.8211,0.111,0.004,-0.0365,1.0715
2025-05-24T06:13:50.854Z,-0.061,1.0807,0.0775,2.1765,-0.9903,0.236,-0.075,-0.0916,1.2598
2025-05-24T06:13:50.864Z,-0.0756,1.1063,0.0635,2.4664,-1.2858,0.3699,-0.1388,-0.1411,1.4252
2025-05-24T06:13:50.876Z,-0.0774,1.1448,0.0606,2.6166,-1.6984,0.4042,-0.1984,-0.1436,1.5746
2025-05-24T06:13:50.884Z,-0.0684,1.1916,0.0779,2.6759,-2.2109,0.2177,-0.2507,-0.0959,1.7063
2025-05-24T06:13:50.894Z,-0.0335,1.2395,0.13,2.4634,-2.702,-0.2946,-0.2997,-0.0096,1.8404
2025-05-24T06:13:50.905Z,0.0262,1.2614,0.1823,2.0726,-2.9176,-0.7497,-0.3293,0.0682,1.9863
2025-05-24T06:13:50.914Z,0.0626,1.2453,0.2196,1.9381,-2.7822,-1.0764,-0.3547,0.1182,2.0658
2025-05-24T06:13:50.925Z,0.0855,1.2233,0.2591,1.8878,-2.6553,-1.4263,-0.3418,0.1413,2.0602
2025-05-24T06:13:50.934Z,0.1202,1.2249,0.3188,1.7561,-2.7443,-2.0735,-0.3725,0.1277,1.9901
2025-05-24T06:13:50.945Z,0.1118,1.2336,0.4741,2.0685,-2.9028,-3.6066,-0.4729,-0.0678,1.8676
2025-05-24T06:13:50.955Z,0.0656,1.259,0.5768,2.7347,-3.2288,-4.4017,-0.5155,-0.4644,1.6869
2025-05-24T06:13:50.964Z,-0.0641,1.2815,0.5289,4.2269,-3.4871,-3.7606,-0.5647,-0.716,1.399
2025-05-24T06:13:50.975Z,-0.245,1.2932,0.4147,6.1348,-3.597,-2.6026,-0.6226,-0.7943,1.0146
2025-05-24T06:13:50.984Z,-0.4227,1.2339,0.3124,7.8471,-2.9205,-1.5787,-0.6681,-0.7432,0.5415
2025-05-24T06:13:50.995Z,-0.5141,1.0893,0.222,8.6626,-1.4384,-0.6957,-0.6842,-0.6414,0.0752
2025-05-24T06:13:51.005Z,-0.5862,0.9216,0.1836,9.3656,0.2045,-0.3447,-0.7122,-0.6412,-0.3847
2025-05-24T06:13:51.014Z,-0.6561,0.7822,0.1795,9.927,1.524,-0.2525,-0.7402,-0.7029,-0.837
2025-05-24T06:13:51.026Z,-0.6879,0.6993,0.1375,10.1058,2.3027,0.2413,-0.7448,-0.635,-1.2491
2025-05-24T06:13:51.034Z,-0.714,0.6777,0.0999,10.1962,2.4774,0.628,-0.7215,-0.5213,-1.6286
2025-05-24T06:13:51.045Z,-0.7148,0.7223,0.0774,9.9685,2.0174,0.891,-0.646,-0.4404,-1.9698
2025-05-24T06:13:51.055Z,-0.6703,0.8284,0.0568,9.2798,0.9804,1.125,-0.5671,-0.363,-2.2286
2025-05-24T06:13:51.064Z,-0.5863,0.9492,0.0414,8.209,-0.1276,1.3039,-0.4926,-0.3176,-2.3771
2025-05-24T06:13:51.074Z,-0.4973,1.0446,0.0321,7.1245,-0.9796,1.4182,-0.4246,-0.2568,-2.4311
2025-05-24T06:13:51.084Z,-0.4115,1.103,0.0289,6.0424,-1.4325,1.4678,-0.3485,-0.1558,-2.458
2025-05-24T06:13:51.095Z,-0.3164,1.0975,0.0321,4.8607,-1.2747,1.4499,-0.26,0.0042,-2.5507
2025-05-24T06:13:51.105Z,-0.225,1.0795,0.049,3.7335,-1.0729,1.2672,-0.1802,0.1359,-2.6697
2025-05-24T06:13:51.114Z,-0.1655,1.0824,0.082,2.9145,-1.0821,0.9767,-0.1182,0.1662,-2.7849
2025-05-24T06:13:51.124Z,-0.1409,1.0954,0.0893,2.4462,-1.1888,0.9427,-0.0654,0.1444,-2.8842
2025-05-24T06:13:51.134Z,-0.1487,1.1171,0.0766,2.2446,-1.3715,1.0907,-0.0146,0.1219,-2.9722
2025-05-24T06:13:51.145Z,-0.154,1.1312,0.0537,1.9979,-1.4664,1.3081,0.0441,0.1218,-3.026
2025-05-24T06:13:51.155Z,-0.1472,1.1277,0.0299,1.6146,-1.4009,1.5218,0.0925,0.1295,-3.0521
2025-05-24T06:13:51.164Z,-0.1224,1.1118,0.0139,1.0402,-1.2479,1.6506,0.1397,0.1745,-3.0608
2025-05-24T06:13:51.174Z,-0.0731,1.1017,0.0121,0.2341,-1.1601,1.6109,0.2172,0.269,-3.0426
2025-05-24T06:13:51.184Z,0.0052,1.0995,0.0484,-0.8597,-1.1435,1.189,0.3061,0.4248,-2.9576
2025-05-24T06:13:51.195Z,0.0858,1.0873,0.0909,-1.8879,-1.0182,0.7444,0.3447,0.8213,-2.7995
2025-05-24T06:13:51.205Z,0.1224,1.0567,0.1464,-2.4761,-0.7304,0.1024,0.3265,1.2622,-2.6506
2025-05-24T06:13:51.214Z,0.1217,1.0295,0.2256,-2.6994,-0.5251,-0.7206,0.3345,1.4861,-2.5535
2025-05-24T06:13:51.224Z,0.093,1.0359,0.2641,-2.6438,-0.6632,-1.0701,0.3826,1.4868,-2.551
2025-05-24T06:13:51.234Z,0.0432,1.0589,0.2246,-2.43,-0.9272,-0.6676,0.4529,1.4752,-2.6376
2025-05-24T06:13:51.245Z,-0.005,1.0669,0.1588,-2.2416,-1.0361,-0.1319,0.4841,1.5306,-2.7305
2025-05-24T06:13:51.255Z,-0.0213,1.0635,0.1319,-2.4274,-1.0608,-0.0108,0.4794,1.54,-2.6928
2025-05-24T06:13:51.264Z,0.0108,1.0657,0.1421,-3.022,-1.166,-0.2208,0.461,1.476,-2.553
2025-05-24T06:13:51.274Z,0.0546,1.0707,0.18,-3.6889,-1.2477,-0.7043,0.4269,1.3876,-2.3872
2025-05-24T06:13:51.284Z,0.1001,1.0453,0.2314,-4.3675,-1.0274,-1.2641,0.3475,1.2737,-2.2112
2025-05-24T06:13:51.295Z,0.1654,0.9991,0.257,-5.223,-0.6268,-1.5405,0.2499,1.1526,-2.0247
2025-05-24T06:13:51.305Z,0.2522,0.9519,0.2711,-6.259,-0.2403,-1.7536,0.1553,1.0079,-1.7961
2025-05-24T06:13:51.314Z,0.3535,0.9111,0.3171,-7.4019,0.1094,-2.2547,0.0354,0.7834,-1.4838
2025-05-24T06:13:51.324Z,0.4361,0.8761,0.3468,-8.2088,0.3858,-2.4674,-0.1244,0.484,-1.1302
2025-05-24T06:13:51.334Z,0.3982,0.8637,0.3018,-7.7562,0.4568,-1.9326,-0.2619,0.2283,-0.8859
2025-05-24T06:13:51.344Z,0.2881,0.8543,0.2024,-6.7581,0.5165,-0.8801,-0.2806,0.0672,-0.786
2025-05-24T06:13:51.355Z,0.2221,0.8529,0.0892,-6.2531,0.4696,0.2107,-0.2368,0.0305,-0.6714
2025-05-24T06:13:51.364Z,0.211,0.8716,0.0366,-6.1975,0.2704,0.6173,-0.2348,0.0802,-0.4002
2025-05-24T06:13:51.374Z,0.2055,0.8805,0.0734,-6.1561,0.1951,0.2233,-0.2766,0.1193,-0.0501
2025-05-24T06:13:51.384Z,0.2209,0.8884,0.1122,-6.2883,0.1292,-0.0918,-0.3103,0.1988,0.2988
2025-05-24T06:13:51.395Z,0.2273,0.8956,0.1204,-6.2752,0.0868,-0.1374,-0.3362,0.2641,0.6003
2025-05-24T06:13:51.404Z,0.2313,0.9071,0.1215,-6.2541,-0.0225,-0.1213,-0.3765,0.33,0.8676
2025-05-24T06:13:51.414Z,0.2341,0.9317,0.1204,-6.163,-0.2118,-0.1073,-0.4164,0.442,1.1147
2025-05-24T06:13:51.424Z,0.2303,0.9435,0.144,-6.0095,-0.2605,-0.3548,-0.456,0.5691,1.3659
2025-05-24T06:13:51.434Z,0.2333,0.9408,0.1808,-5.8944,-0.176,-0.6811,-0.4975,0.6829,1.5936
2025-05-24T06:13:51.445Z,0.2009,0.955,0.196,-5.3374,-0.3044,-0.7955,-0.5326,0.8173,1.6976
2025-05-24T06:13:51.454Z,0.0941,1.0118,0.2208,-4.1261,-0.8594,-1.0626,-0.5806,0.963,1.6657
2025-05-24T06:13:51.464Z,-0.0655,1.0596,0.2761,-2.1586,-1.2197,-1.5826,-0.5895,0.7994,1.5261
2025-05-24T06:13:51.474Z,-0.6255,1.0934,0.252,3.9419,-1.6179,-1.1015,-0.444,0.1558,0.8586
2025-05-24T06:13:51.484Z,-1.4019,1.1922,0.1264,11.2606,-2.6463,0.1467,-0.2763,-0.255,-0.4583
2025-05-24T06:13:51.496Z,-1.6581,1.2901,0.0033,12.4729,-3.6826,1.5356,-0.4808,1.1417,-1.6949
2025-05-24T06:13:51.506Z,-0.8567,1.4302,-0.3544,3.2803,-5.1874,5.2107,-0.8174,2.2777,-0.1126
2025-05-24T06:13:51.514Z,0.3451,1.5518,-0.4663,-7.9721,-6.2269,5.5875,-0.8174,2.2777,-0.1126
2025-05-24T06:13:51.524Z,0.7961,1.6698,-0.159,-11.1408,-7.582,2.4445,-1.0085,2.3598,1.8315
2025-05-24T06:13:51.534Z,0.4662,1.928,0.1629,-6.9693,-9.837,-0.6525,-0.9351,1.281,2.841
2025-05-24T06:13:51.545Z,-0.0608,1.8378,0.3705,-1.9444,-8.4095,-2.187,-0.7647,0.5713,2.8571
2025-05-24T06:13:51.555Z,0.0787,1.1096,-0.095,-2.3497,-4.8666,0.5634,-0.7647,0.5713,2.8571
2025-05-24T06:13:51.564Z,0.0787,1.1096,-0.095,-3.1235,-1.0598,2.4508,-0.9095,1.2944,2.7547
2025-05-24T06:13:51.575Z,-0.0131,0.8239,0.0363,-1.9101,1.6007,0.9029,-1.0407,1.265,2.25
2025-05-24T06:13:51.585Z,-0.0731,0.6817,0.3203,-1.2944,2.8478,-1.8531,-0.7954,0.5981,2.1442
2025-05-24T06:13:51.595Z,0.0064,0.6698,0.5857,-2.0393,2.8644,-4.2771,-0.6808,-0.1609,2.1198
2025-05-24T06:13:51.605Z,0.1908,0.8279,0.6129,-3.2648,2.1254,-4.9511,-0.6937,-0.7211,1.9798
2025-05-24T06:13:51.614Z,0.1908,0.8279,0.6129,-3.2002,1.3268,-4.0093,-0.6293,-0.9537,1.6377
2025-05-24T06:13:51.624Z,0.0979,0.8613,0.4928,-2.0793,1.0968,-2.7809,-0.6293,-0.9537,1.6377
2025-05-24T06:13:51.635Z,0.0393,0.8434,0.3676,-1.4865,1.2992,-1.4424,-0.529,-0.66,0.5997
2025-05-24T06:13:51.645Z,0.0445,0.8265,0.224,-1.5337,1.4184,-0.0083,-0.516,-0.5857,0.1768
2025-05-24T06:13:51.655Z,0.075,1.0142,0.1051,-1.8076,0.8325,0.8284,-0.501,-0.7383,0.0851
2025-05-24T06:13:51.664Z,0.075,1.0142,0.1051,-1.7173,-0.609,1.1544,-0.5098,-0.7196,0.1088
2025-05-24T06:13:51.675Z,-0.1151,1.1155,0.0781,-0.9498,-1.5061,1.5217,-0.5024,-0.3927,0.1032
2025-05-24T06:13:51.684Z,-0.1151,1.1155,0.0781,0.3023,-1.3924,1.4271,-0.4571,-0.0696,0.0841
2025-05-24T06:13:51.695Z,-0.2023,1.0503,0.1427,1.0323,-0.7189,0.7897,-0.4184,0.0058,0.1329
2025-05-24T06:13:51.705Z,-0.1382,0.9528,0.3645,0.6491,-0.0965,-0.2702,-0.3949,-0.1635,0.2224
2025-05-24T06:13:51.714Z,-0.1382,0.9528,0.3645,0.4188,0.1356,-1.3159,-0.3674,-0.4607,0.3084
2025-05-24T06:13:51.725Z,-0.1966,0.9846,0.422,0.5779,-0.0418,-1.8057,-0.3496,-0.7433,0.3447
2025-05-24T06:13:51.734Z,-0.1966,0.9846,0.422,1.1884,-0.1915,-1.6554,-0.3458,-0.9324,0.3516
2025-05-24T06:13:51.746Z,-0.2582,0.919,0.2817,1.7607,0.1009,-1.0379,-0.3341,-0.9883,0.3993
2025-05-24T06:13:51.755Z,-0.2576,0.9276,0.2205,1.8072,0.4569,-0.1396,-0.3211,-0.9353,0.4789
2025-05-24T06:13:51.765Z,-0.2409,0.9895,0.1932,1.8844,0.303,0.4464,-0.3034,-0.7941,0.5934
2025-05-24T06:13:51.775Z,-0.1846,1.0671,0.1887,1.7379,-0.3632,0.7194,-0.3133,-0.6323,0.7615
2025-05-24T06:13:51.785Z,-0.1559,1.0928,0.2311,1.2811,-1.0943,0.7466,-0.3141,-0.5568,0.9315
2025-05-24T06:13:51.795Z,-0.1251,1.0619,0.2756,1.1332,-1.266,0.3192,-0.2962,-0.5566,1.0639
2025-05-24T06:13:51.805Z,-0.0822,1.0013,0.3005,0.9329,-0.9198,-0.0642,-0.2931,-0.5918,1.1081
2025-05-24T06:13:51.814Z,-0.052,0.9507,0.3192,0.6199,-0.3207,-0.2657,-0.291,-0.6367,1.0871
2025-05-24T06:13:51.825Z,-0.0412,0.9412,0.3389,0.47,0.1249,-0.4206,-0.2696,-0.6741,1.0417
2025-05-24T06:13:51.834Z,0.012,0.9495,0.3702,0.4868,0.1718,-0.5867,-0.2562,-0.994,1.0335
2025-05-24T06:13:51.845Z,-0.0233,0.9875,0.304,0.0347,0.0675,-0.8755,-0.2536,-0.839,0.9739
2025-05-24T06:13:51.861Z,-0.0493,1.0045,0.187,0.916,-0.4508,1.019,-0.2585,-0.4456,1.0129
2025-05-24T06:13:51.864Z,-0.0852,0.9801,0.2297,0.916,-0.4508,1.019,-0.2772,-0.3828,1.0609
2025-05-24T06:13:51.875Z,-0.0645,0.9853,0.2553,1.4441,-0.2283,0.5145,-0.281,-0.2884,1.1276
2025-05-24T06:13:51.884Z,0.0121,1.0008,0.2414,1.184,-0.3302,0.39,-0.279,-0.1861,1.1736
2025-05-24T06:13:51.895Z,0.0424,1.0061,0.2691,0.6292,-0.4969,0.513,-0.3023,-0.21,1.2023
2025-05-24T06:13:51.906Z,0.1121,1.0027,0.2794,0.4056,-0.5553,0.2692,-0.3083,-0.2663,1.2478
2025-05-24T06:13:51.914Z,0.1123,0.9924,0.3172,-0.112,-0.5259,0.1683,-0.3181,-0.3983,1.2465
2025-05-24T06:13:51.925Z,0.1176,0.9902,0.3048,0.0601,-0.4481,-0.1575,-0.3144,-0.4599,1.2327
2025-05-24T06:13:51.934Z,0.0991,1.0073,0.312,0.1106,-0.4691,0.0305,-0.321,-0.4732,1.2149
2025-05-24T06:13:51.945Z,0.0733,1.0148,0.373,0.4775,-0.6728,-0.0991,-0.3442,-0.5865,1.2352
2025-05-24T06:13:51.956Z,0.0464,1.0079,0.3967,0.8348,-0.7515,-0.6724,-0.3588,-0.7382,1.2687
2025-05-24T06:13:51.964Z,0.0144,1.0181,0.383,1.2793,-0.7113,-0.8258,-0.344,-0.8282,1.3127
2025-05-24T06:13:51.975Z,0.0748,1.0534,0.3328,1.6591,-0.8909,-0.6387,-0.354,-0.8563,1.4255
2025-05-24T06:13:51.984Z,0.1304,1.0842,0.2866,1.1406,-1.2848,-0.0956,-0.4139,-0.9001,1.5357
2025-05-24T06:13:51.995Z,0.1493,1.1024,0.2866,0.8369,-1.6099,0.3244,-0.4421,-0.9396,1.608
2025-05-24T06:13:52.006Z,0.1629,1.1287,0.2808,0.8353,-1.8367,0.311,-0.4251,-0.9654,1.6621
2025-05-24T06:13:52.014Z,0.1597,1.1559,0.2647,0.896,-2.1604,0.4018,-0.4334,-0.9774,1.7215
2025-05-24T06:13:52.024Z,0.1597,1.1559,0.2647,1.1243,-2.4863,0.58,-0.4498,-0.947,1.7974
2025-05-24T06:13:52.034Z,0.186,1.2304,0.3181,1.3005,-2.8456,0.3812,-0.4239,-0.9272,1.8915
2025-05-24T06:13:52.045Z,0.2214,1.2691,0.3178,1.1944,-3.3689,0.033,-0.3675,-1.0003,1.9924
2025-05-24T06:13:52.055Z,0.2168,1.285,0.2823,1.0855,-3.7971,0.0864,-0.3097,-1.093,2.0717
2025-05-24T06:13:52.064Z,0.1858,1.3027,0.2524,1.3892,-4.0251,0.4397,-0.2942,-1.1438,2.1413
2025-05-24T06:13:52.074Z,0.1858,1.3027,0.2524,1.9377,-4.2788,0.6849,-0.302,-1.1193,2.199
2025-05-24T06:13:52.084Z,0.116,1.345,0.2536,2.5243,-4.5763,0.684,-0.2565,-1.0534,2.2536
2025-05-24T06:13:52.095Z,0.0922,1.3506,0.2682,3.0507,-4.8939,0.6047,-0.231,-1.1011,2.3343
2025-05-24T06:13:52.106Z,0.0604,1.3329,0.2959,3.5072,-5.0185,0.4087,-0.2708,-1.2406,2.4008
2025-05-24T06:13:52.114Z,0.0303,1.3201,0.3121,4.0639,-4.9393,0.1176,-0.2654,-1.3439,2.4366
2025-05-24T06:13:52.125Z,-0.0022,1.3287,0.3561,4.5853,-4.9768,-0.1008,-0.2438,-1.5249,2.4426
2025-05-24T06:13:52.134Z,-0.0518,1.3402,0.4057,5.1727,-5.1934,-0.6389,-0.2642,-1.9028,2.4568
2025-05-24T06:13:52.145Z,-0.1043,1.3679,0.414,5.9077,-5.457,-1.1605,-0.2908,-2.3273,2.4723
2025-05-24T06:13:52.155Z,-0.1844,1.3984,0.3995,6.703,-5.8783,-1.3107,-0.3203,-2.749,2.4489
2025-05-24T06:13:52.164Z,-0.2161,1.4411,0.3459,7.7473,-6.3303,-1.2832,-0.412,-3.2796,2.4493
2025-05-24T06:13:52.175Z,-0.1602,1.4766,0.2777,8.2017,-6.9232,-0.8764,-0.5693,-3.7476,2.5424
2025-05-24T06:13:52.184Z,-0.1253,1.5261,0.24,7.8857,-7.4261,-0.4319,-0.6177,-3.7257,2.6269
2025-05-24T06:13:52.195Z,-0.1734,1.6595,0.2339,7.8855,-8.1656,-0.2682,-0.5262,-2.723,2.6101
2025-05-24T06:13:52.207Z,-0.2398,1.8305,0.2608,9.4421,-11.5863,-0.6608,-0.5074,-0.9563,2.6159
2025-05-24T06:13:52.214Z,-0.2642,1.9131,0.3269,9.4421,-11.5863,-0.6608,-0.5491,0.5025,2.7119
2025-05-24T06:13:52.225Z,-0.3408,1.8957,0.5235,9.8532,-12.4502,-1.3757,-0.5141,1.0075,2.7419
2025-05-24T06:13:52.234Z,-0.4485,1.8371,0.6461,10.8635,-12.407,-3.2891,-0.3256,0.7573,2.6916
2025-05-24T06:13:52.245Z,-0.376,1.745,0.5981,11.9425,-12.0008,-4.1715,-0.1198,0.3049,2.826
2025-05-24T06:13:52.259Z,-0.064,1.6206,0.4961,8.0489,-10.2701,-2.5672,-0.2737,-0.1502,3.4486
2025-05-24T06:13:52.264Z,0.1319,1.4034,0.4526,8.0489,-10.2701,-2.5672,-0.4434,-0.1934,3.8768
2025-05-24T06:13:52.274Z,-0.1981,1.2105,0.6883,7.016,-8.3785,-2.3066,-0.5755,0.064,3.6617
2025-05-24T06:13:52.284Z,-0.1063,1.0517,0.499,10.422,-6.8942,-4.8147,-0.349,0.6639,3.4305
2025-05-24T06:13:52.295Z,0.0021,0.7999,0.0666,9.1096,-5.5434,-1.8441,0.0714,0.7581,3.0288
2025-05-24T06:13:52.307Z,-0.2726,0.5187,-0.0114,11.5709,-0.5809,2.5996,0.3031,0.1858,2.0542
2025-05-24T06:13:52.314Z,-0.3848,0.2073,-0.1439,11.5709,-0.5809,2.5996,0.2964,-0.0276,0.7779
2025-05-24T06:13:52.325Z,-0.2921,-0.0433,-0.1705,12.283,2.4457,3.9076,0.2967,0.1573,-0.4324
2025-05-24T06:13:52.334Z,-0.2461,-0.1472,-0.0383,11.3388,4.8204,3.9074,0.3703,0.3344,-1.5432
2025-05-24T06:13:52.345Z,-0.1452,-0.0806,0.0369,10.8171,5.7995,2.5905,0.5237,0.5614,-2.4234
2025-05-24T06:13:52.357Z,-0.0367,0.1636,0.0606,8.5286,2.9021,1.798,0.7365,0.8765,-2.908
2025-05-24T06:13:52.364Z,-0.0797,0.3992,0.1092,8.5286,2.9021,1.798,0.8706,1.1875,-3.28
2025-05-24T06:13:52.375Z,-0.1155,0.5464,0.1119,8.8391,0.9859,1.388,0.9857,1.6179,-3.5999
2025-05-24T06:13:52.384Z,-0.0915,0.6343,0.0898,8.8678,-0.0464,1.5019,1.1695,2.1477,-3.8214
2025-05-24T06:13:52.396Z,-0.054,0.6775,0.0881,7.6274,-0.5828,1.9141,1.3576,2.6198,-3.9315
2025-05-24T06:13:52.407Z,-0.0001,0.6915,0.1195,6.7696,-0.3664,1.657,1.5108,2.8731,-3.9517
2025-05-24T06:13:52.414Z,0.0637,0.6838,0.1988,6.7696,-0.3664,1.657,1.6324,2.8849,-4.0279
2025-05-24T06:13:52.424Z,0.1753,0.6851,0.2522,5.7617,0.0362,0.9502,1.775,2.7209,-4.2046
2025-05-24T06:13:52.434Z,0.3003,0.7241,0.2908,4.221,0.3125,0.4829,1.9307,2.4774,-4.4447
2025-05-24T06:13:52.446Z,0.3774,0.7971,0.2928,1.5017,-0.2226,0.1152,1.9979,2.2481,-4.7761
2025-05-24T06:13:52.457Z,0.4576,0.9075,0.3324,0.219,-1.0429,-0.4627,2.0431,1.8818,-5.1398
2025-05-24T06:13:52.464Z,0.5436,1.0475,0.4202,0.219,-1.0429,-0.4627,2.1146,1.344,-5.4237
2025-05-24T06:13:52.475Z,0.5914,1.1597,0.4554,-1.9572,-2.8469,-1.8538,2.2008,0.9227,-5.6454
2025-05-24T06:13:52.484Z,0.5408,1.2373,0.4735,-1.9572,-2.8469,-1.8538,2.2722,0.6861,-5.8868
2025-05-24T06:13:52.495Z,0.488,1.2988,0.5053,-2.0227,-3.6725,-2.7388,2.2879,0.5916,-6.1056
2025-05-24T06:13:52.506Z,0.478,1.3618,0.5696,-2.5473,-4.1055,-3.6061,2.2796,0.5549,-6.1919
2025-05-24T06:13:52.514Z,0.52,1.4496,0.64,-2.5473,-4.1055,-3.6061,2.228,0.4742,-6.1011
2025-05-24T06:13:52.525Z,0.5924,1.5848,0.6642,-4.874,-6.1338,-4.8374,2.1239,0.2869,-5.9427
2025-05-24T06:13:52.535Z,0.6524,1.7501,0.6537,-6.0385,-7.6671,-4.8857,1.9825,0.1422,-5.804
2025-05-24T06:13:52.545Z,0.7637,1.8473,0.6273,-7.7501,-8.4137,-4.8194,1.8316,0.0645,-5.6324
2025-05-24T06:13:52.556Z,0.9244,1.7792,0.6603,-9.8506,-7.5443,-5.3741,1.654,-0.0659,-5.3633
2025-05-24T06:13:52.564Z,1.0432,1.6163,0.6716,-9.8506,-7.5443,-5.3741,1.4616,0.0975,-4.9963
2025-05-24T06:13:52.575Z,1.0894,1.5564,0.6904,-12.2225,-5.6317,-5.9529,1.2027,0.0947,-4.6464
2025-05-24T06:13:52.584Z,1.0942,1.5828,0.7335,-12.6267,-5.9459,-6.2793,0.9254,-0.1614,-4.3723
2025-05-24T06:13:52.595Z,0.9828,1.5176,0.6057,-11.7215,-5.2,-4.9744,0.6982,-0.1165,-4.325
2025-05-24T06:13:52.606Z,0.7854,1.3204,0.4829,-10.357,-3.313,-3.9039,0.4876,0.1435,-4.5173
2025-05-24T06:13:52.615Z,0.8237,1.1541,0.4301,-11.4696,-1.9454,-3.4775,0.305,0.247,-4.4092
2025-05-24T06:13:52.624Z,1.0199,1.0883,0.4053,-13.706,-1.4885,-3.2752,0.1106,0.1487,-3.7831
2025-05-24T06:13:52.634Z,1.1648,1.0515,0.3956,-15.3699,-1.2186,-3.1192,-0.1088,-0.0236,-2.8996
2025-05-24T06:13:52.645Z,1.3935,0.9849,0.3431,-17.9261,-0.5692,-2.5959,-0.2588,0.0842,-1.9126
2025-05-24T06:13:52.657Z,1.7424,0.8598,0.3265,-21.4303,0.7183,-2.4558,-0.335,0.4057,-0.7327
2025-05-24T06:13:52.664Z,1.9057,0.6852,0.2817,-22.343,2.5148,-1.9096,-0.4281,0.5978,0.5583
2025-05-24T06:13:52.674Z,1.5049,0.5025,0.209,-17.803,4.2211,-1.1888,-0.617,0.5733,1.4879
2025-05-24T06:13:52.684Z,1.0728,0.528,0.2046,-13.8029,3.7591,-1.2831,-0.7261,0.8546,2.1257
2025-05-24T06:13:52.695Z,1.047,0.7059,0.3343,-13.6899,2.0629,-2.5969,-0.6855,1.195,2.6911
2025-05-24T06:13:52.705Z,1.1424,0.8493,0.346,-14.1766,0.8675,-2.3617,-0.6285,1.5549,3.1494
2025-05-24T06:13:52.714Z,0.9364,0.8803,0.1665,-11.3607,0.7707,-0.6905,-0.6561,1.9466,3.1645
2025-05-24T06:13:52.724Z,0.3766,0.8985,0.2507,-5.4107,0.4792,-1.6165,-0.7649,1.6499,2.6666
2025-05-24T06:13:52.734Z,-0.5199,1.1314,0.0104,4.2159,-2.0366,1.2223,-0.3326,0.2782,1.4123
2025-05-24T06:13:52.745Z,-1.8526,1.3965,-0.0272,16.8885,-4.4738,0.7796,-0.3739,-0.4364,-1.0677
2025-05-24T06:13:52.755Z,-2.2362,1.4884,0.2436,18.0931,-5.4224,-1.0426,-0.9667,-0.4205,-3.543
2025-05-24T06:13:52.764Z,-0.3972,1.7487,-0.3729,-3.1778,-8.5674,5.5766,-0.8579,0.5276,-3.3397
2025-05-24T06:13:52.774Z,2.3985,2.2641,-0.5607,-28.009,-13.5928,6.1498,-0.5959,2.5726,-0.044
2025-05-24T06:13:52.784Z,1.5558,2.7547,0.1634,-15.2003,-18.1613,-1.7377,-0.8562,0.858,2.0051
2025-05-24T06:13:52.795Z,-0.3405,2.7948,1.0443,1.0839,-17.7149,-9.0527,-1.5661,-2.0152,2.1543
2025-05-24T06:13:52.805Z,0.3211,2.3205,0.5145,-6.9757,-12.647,-2.3274,-1.5729,-0.9969,2.9373
2025-05-24T06:13:52.814Z,0.6883,1.7104,-0.0445,-8.0636,-6.6105,1.9698,-1.2745,0.9013,3.5223
2025-05-24T06:13:52.824Z,-0.0504,1.1544,0.2273,-0.8958,-1.2341,-0.8309,-1.2826,0.7583,3.2365
2025-05-24T06:13:52.834Z,-0.0176,0.7097,0.4077,-1.7675,2.9694,-2.2742,-1.5216,0.5629,2.9205
2025-05-24T06:13:52.844Z,0.1626,0.4432,0.5669,-2.8881,5.353,-3.8216,-1.4098,0.5697,2.8233
2025-05-24T06:13:52.855Z,0.06,0.3613,0.7635,-1.5073,5.9823,-5.521,-0.9597,-0.0107,2.6705
2025-05-24T06:13:52.864Z,-0.014,0.4322,0.6943,-0.7578,5.1028,-4.4197,-0.4689,-0.4612,2.3143
2025-05-24T06:13:52.880Z,0.0941,0.6662,0.4768,-1.8403,2.6364,-2.3304,-0.3021,-0.4069,1.8459
2025-05-24T06:13:52.884Z,0.2856,0.978,0.3741,-3.5727,-0.3945,-1.4332,-0.3897,-0.4705,1.3807
2025-05-24T06:13:52.895Z,0.4302,1.199,0.3538,-4.7722,-2.3488,-1.1889,-0.4439,-0.8727,0.9758
2025-05-24T06:13:52.904Z,0.4238,1.1962,0.2625,-4.3854,-2.0455,-0.1289,-0.4414,-1.1421,0.523
2025-05-24T06:13:52.914Z,0.2085,1.0324,0.1513,-2.0984,-0.4394,0.917,-0.4566,-1.1676,-0.0684
2025-05-24T06:13:52.924Z,0.0234,0.9661,0.1176,-0.532,0.0446,1.2595,-0.4749,-1.1488,-0.304
2025-05-24T06:13:52.934Z,-0.0278,0.9552,0.0752,-0.0259,0.1504,1.734,-0.4604,-0.8319,-0.3001
2025-05-24T06:13:52.945Z,-0.155,0.9435,0.0856,1.2623,0.2302,1.5037,-0.3739,-0.2655,-0.3721
2025-05-24T06:13:52.955Z,-0.2272,0.9471,0.2102,1.7179,0.1861,0.2497,-0.2731,0.114,-0.4647
2025-05-24T06:13:52.964Z,-0.162,0.9385,0.3489,1.0066,0.2894,-1.0886,-0.2878,-0.0887,-0.4226
2025-05-24T06:13:52.974Z,-0.1549,0.9114,0.4868,1.065,0.5651,-2.3454,-0.378,-0.8241,-0.3176
2025-05-24T06:13:52.984Z,-0.2069,0.8678,0.506,1.5724,0.9799,-2.2707,-0.3896,-1.4214,-0.2139
2025-05-24T06:13:52.995Z,-0.2315,0.847,0.3702,1.8728,1.12,-0.7962,-0.3604,-1.4078,-0.0849
2025-05-24T06:13:53.005Z,-0.3187,0.8686,0.236,2.8221,0.859,0.4437,-0.3594,-1.0141,0.0096
2025-05-24T06:13:53.014Z,-0.369,0.9237,0.2041,3.149,0.2663,0.6814,-0.3471,-0.5871,0.1168
2025-05-24T06:13:53.024Z,-0.2701,1.0035,0.2254,2.1364,-0.5428,0.4888,-0.3257,-0.308,0.3617
2025-05-24T06:13:53.034Z,-0.1766,1.0897,0.2611,1.3971,-1.3725,0.1519,-0.3529,-0.3237,0.7234
2025-05-24T06:13:53.045Z,-0.12,1.1409,0.2843,0.9306,-1.8048,0.0207,-0.3777,-0.4656,1.0802
2025-05-24T06:13:53.055Z,-0.033,1.0995,0.262,0.1978,-1.2898,0.298,-0.365,-0.4302,1.2115
2025-05-24T06:13:53.064Z,0.04,1.0226,0.2444,-0.3805,-0.5951,0.4716,-0.3801,-0.4126,1.2255
2025-05-24T06:13:53.074Z,0.1003,0.9975,0.2592,-0.7879,-0.409,0.3328,-0.4165,-0.5932,1.2521
2025-05-24T06:13:53.084Z,0.0814,0.9887,0.2782,-0.3659,-0.3346,0.2195,-0.4291,-0.7699,1.2224
2025-05-24T06:13:53.095Z,0.0332,0.9749,0.2588,0.1933,-0.2205,0.477,-0.4528,-0.7422,1.1423
2025-05-24T06:13:53.105Z,0.0201,0.9686,0.2595,0.4395,-0.1968,0.4456,-0.4957,-0.7432,1.0691
2025-05-24T06:13:53.114Z,-0.0018,0.9718,0.2976,0.793,-0.2604,0.1262,-0.5226,-0.8495,1.0986
2025-05-24T06:13:53.124Z,-0.0422,0.9788,0.2983,1.3795,-0.3457,0.1951,-0.5503,-0.9559,1.2026
2025-05-24T06:13:53.134Z,-0.096,0.9923,0.2987,2.0116,-0.5252,0.2141,-0.5636,-0.9358,1.2906
2025-05-24T06:13:53.145Z,-0.0926,1.014,0.3115,2.0446,-0.7706,0.1036,-0.5627,-0.8033,1.369
2025-05-24T06:13:53.155Z,-0.0311,1.034,0.3457,1.5332,-1.0072,-0.2025,-0.5576,-0.7315,1.4359
2025-05-24T06:13:53.164Z,0.0768,1.0534,0.3673,0.608,-1.2286,-0.3257,-0.5308,-0.7911,1.5106
2025-05-24T06:13:53.174Z,0.1763,1.0774,0.3557,-0.1263,-1.5176,-0.1835,-0.5216,-0.9429,1.5968
2025-05-24T06:13:53.184Z,0.1939,1.0937,0.3606,0.021,-1.702,-0.223,-0.5229,-1.1547,1.6427
2025-05-24T06:13:53.195Z,0.1377,1.0953,0.3693,0.7867,-1.7529,-0.2694,-0.4936,-1.3097,1.6148
2025-05-24T06:13:53.204Z,0.0928,1.1083,0.3433,1.3539,-1.9678,0.0321,-0.4562,-1.3203,1.5804
2025-05-24T06:13:53.214Z,0.0988,1.1438,0.3258,1.4344,-2.3793,0.1645,-0.4506,-1.2864,1.6319
2025-05-24T06:13:53.224Z,0.1191,1.1877,0.3389,1.4577,-2.8823,0.0387,-0.4084,-1.3195,1.7397
2025-05-24T06:13:53.234Z,0.1041,1.2425,0.3326,1.8694,-3.4886,0.1147,-0.3459,-1.4079,1.845
2025-05-24T06:13:53.245Z,0.0706,1.2852,0.2952,2.3921,-3.9417,0.5264,-0.3334,-1.4348,1.9503
2025-05-24T06:13:53.254Z,0.0652,1.2952,0.2164,2.6532,-4.0808,1.3175,-0.359,-1.3535,2.0807
2025-05-24T06:13:53.264Z,0.0621,1.2835,0.1281,2.9093,-4.0471,2.1525,-0.33,-1.205,2.2186
2025-05-24T06:13:53.274Z,0.0716,1.2796,0.0748,3.0332,-4.1184,2.5861,-0.2889,-1.0485,2.3525
2025-05-24T06:13:53.284Z,0.0766,1.2952,0.0886,3.2597,-4.4041,2.3624,-0.2768,-0.9313,2.4485
2025-05-24T06:13:53.295Z,0.0618,1.3284,0.1558,3.6346,-4.8461,1.6359,-0.2775,-0.8927,2.4987
2025-05-24T06:13:53.306Z,0.0605,1.3479,0.2551,3.8751,-5.1198,0.6271,-0.2919,-1.2958,2.5584
2025-05-24T06:13:53.314Z,0.0512,1.3321,0.3311,4.2362,-5.0484,-0.0887,-0.2919,-1.2958,2.5584
2025-05-24T06:13:53.325Z,0.0177,1.3012,0.3631,4.8621,-4.8856,-0.4443,-0.3022,-2.1098,2.5489
2025-05-24T06:13:53.334Z,-0.0519,1.2773,0.3933,5.865,-4.8076,-0.8335,-0.3022,-2.1098,2.5489
2025-05-24T06:13:53.344Z,-0.1502,1.2902,0.3977,7.087,-5.133,-0.9441,-0.2909,-2.5822,2.5121
2025-05-24T06:13:53.355Z,-0.227,1.3608,0.389,8.0918,-6.0519,-1.0643,-0.2185,-3.6149,2.3631
2025-05-24T06:13:53.364Z,-0.2818,1.5118,0.3944,8.8421,-7.7846,-1.277,-0.2185,-3.6149,2.3631
2025-05-24T06:13:53.375Z,-0.2599,1.7253,0.3659,8.7934,-10.0616,-1.1582,-0.543,-3.2219,2.4356
2025-05-24T06:13:53.385Z,-0.2562,1.9113,0.2348,9.2179,-11.9545,0.1474,-0.6026,-1.0335,2.3099
2025-05-24T06:13:53.395Z,-0.6495,1.9892,0.2654,11.639,-12.7584,0.637,-0.6026,-1.0335,2.3099
2025-05-24T06:13:53.406Z,-0.6495,1.9892,0.2654,13.219,-12.8306,-0.3811,-0.6495,1.7073,2.1749
2025-05-24T06:13:53.414Z,-0.5175,1.9271,0.439,11.6576,-12.3158,-2.126,-0.6495,1.7073,2.1749
2025-05-24T06:13:53.425Z,-0.2377,1.8503,0.6931,9.1718,-11.8252,-4.4083,-0.3215,0.1823,3.2443
2025-05-24T06:13:53.435Z,-0.1124,1.8379,0.8005,8.3008,-12.0558,-5.2501,-0.1375,-0.399,3.9277
2025-05-24T06:13:53.445Z,0.0092,1.8686,0.7576,7.2873,-12.5753,-4.6297,-0.1605,-0.4652,4.1606
2025-05-24T06:13:53.456Z,-0.0125,1.7632,0.6076,8.1081,-11.6559,-3.6041,-0.5373,0.0908,4.2561
2025-05-24T06:13:53.465Z,-0.0087,1.5252,0.8399,7.8202,-9.5795,-5.3491,-0.2807,0.9567,4.1912
2025-05-24T06:13:53.475Z,0.0583,1.2156,0.3581,7.8667,-6.7734,-0.2712,0.1237,0.9401,3.5126
2025-05-24T06:13:53.485Z,-0.3061,0.8688,0.1741,11.7525,-3.647,1.1182,0.3628,0.5917,2.3979
2025-05-24T06:13:53.495Z,-0.5158,0.5178,0.045,13.3843,-0.3105,2.6539,0.4936,0.741,1.3118
2025-05-24T06:13:53.506Z,-0.3733,0.1386,-0.1752,11.8044,3.2807,4.7301,0.604,0.9379,0.3043
2025-05-24T06:13:53.515Z,-0.2527,-0.1298,-0.1875,10.8218,5.7177,4.5876,0.7455,0.6663,-0.7012
2025-05-24T06:13:53.525Z,-0.258,-0.2038,-0.0376,10.745,6.2853,3.124,0.9673,0.2977,-1.4416
2025-05-24T06:13:53.534Z,-0.0502,-0.1036,0.0326,8.3047,5.3087,2.5605,1.1953,0.1138,-1.9273
2025-05-24T06:13:53.545Z,0.1497,0.282,0.1307,5.9136,3.487,2.3032,1.2746,0.0472,-2.5236
2025-05-24T06:13:53.555Z,0.1497,0.282,0.1307,6.7639,2.0344,1.3967,1.292,0.2296,-3.245
2025-05-24T06:13:53.564Z,-0.0266,0.3684,0.1783,8.241,1.5918,0.9848,1.3828,0.6821,-3.7952
2025-05-24T06:13:53.576Z,-0.1721,0.3676,0.1961,8.8186,1.7726,1.0702,1.5124,1.207,-4.1618
2025-05-24T06:13:53.585Z,-0.1721,0.3676,0.1961,9.0456,2.3853,0.7556,1.6542,1.6093,-4.4334
2025-05-24T06:13:53.595Z,-0.2205,0.41,0.2365,9.1246,2.785,0.5543,1.815,1.9022,-4.6185
2025-05-24T06:13:53.605Z,-0.2205,0.41,0.2365,8.7607,2.5447,0.4274,1.9396,2.0509,-4.7203
2025-05-24T06:13:53.614Z,-0.1912,0.5304,0.2631,8.0784,1.6468,0.135,2.022,2.0798,-4.7536
2025-05-24T06:13:53.625Z,0.0034,0.8456,0.3739,6.9789,0.4244,-0.376,2.0837,2.0256,-4.7412
2025-05-24T06:13:53.635Z,0.1175,0.9788,0.4433,5.2502,-0.7613,-1.0658,2.1104,1.9368,-4.815
2025-05-24T06:13:53.645Z,0.22,1.1035,0.4998,3.7298,-1.7299,-1.8002,2.1763,1.8855,-5.0233
2025-05-24T06:13:53.656Z,0.22,1.1035,0.4998,2.2653,-2.6828,-2.4482,2.2862,1.8853,-5.2951
2025-05-24T06:13:53.665Z,0.4213,1.3512,0.6458,0.8024,-3.7044,-3.2424,2.4141,1.83,-5.5051
2025-05-24T06:13:53.675Z,0.5045,1.4572,0.7508,-0.7348,-4.5282,-4.1807,2.4705,1.5725,-5.6524
2025-05-24T06:13:53.685Z,0.5287,1.5172,0.8391,-2.023,-5.2947,-5.3893,2.4217,1.3145,-5.7795
2025-05-24T06:13:53.695Z,0.5316,1.5356,0.9135,-2.7767,-5.6069,-6.4121,2.3093,1.2597,-5.8526
2025-05-24T06:13:53.705Z,0.5316,1.5356,0.9135,-3.3525,-5.6065,-7.3363,2.1725,1.2457,-5.8318
2025-05-24T06:13:53.714Z,0.5901,1.5896,1.0217,-4.0866,-5.6765,-8.3233,2.0199,1.1315,-5.7364
2025-05-24T06:13:53.725Z,0.6389,1.6445,0.9651,-5.1335,-5.9612,-8.6171,1.7936,1.0138,-5.6286
2025-05-24T06:13:53.735Z,0.713,1.6861,0.9113,-6.1681,-6.4616,-8.1813,1.5057,0.7747,-5.5005
2025-05-24T06:13:53.745Z,0.8769,1.6916,0.9319,-7.5107,-6.8239,-7.8629,1.2013,0.3375,-5.2574
2025-05-24T06:13:53.755Z,0.8769,1.6916,0.9319,-9.7325,-6.8464,-8.2569,0.933,-0.1317,-4.8801
2025-05-24T06:13:53.764Z,1.078,1.5987,0.8382,-11.8517,-6.5844,-8.4042,0.6844,-0.45,-4.6015
2025-05-24T06:13:53.775Z,1.0199,1.4962,0.7194,-12.2658,-5.9556,-7.2545,0.4858,-0.7592,-4.4476
2025-05-24T06:13:53.784Z,1.039,1.3784,0.5869,-12.1756,-5.0042,-6.1081,0.3055,-0.7543,-4.3007
2025-05-24T06:13:53.795Z,1.0802,1.2554,0.5009,-12.8135,-3.9439,-4.8481,0.1566,-0.4187,-4.0786
2025-05-24T06:13:53.804Z,1.0802,1.2554,0.5009,-13.6343,-2.8421,-4.1008,0.0194,-0.0872,-3.687
2025-05-24T06:13:53.814Z,1.2724,1.0624,0.5121,-14.8901,-1.8237,-4.3281,-0.1294,0.0617,-3.0005
2025-05-24T06:13:53.825Z,1.3978,0.9938,0.4349,-16.1533,-1.2322,-4.1645,-0.3146,0.1278,-2.0846
2025-05-24T06:13:53.834Z,1.5181,0.8866,0.3356,-17.5685,-0.5787,-3.3471,-0.4681,0.2869,-1.0962
2025-05-24T06:13:53.845Z,1.6447,0.7854,0.2464,-18.8239,0.4497,-2.3127,-0.5705,0.4544,-0.0845
2025-05-24T06:13:53.855Z,1.7026,0.6976,0.2256,-20.0415,1.4176,-1.4898,-0.7075,0.5315,0.9058
2025-05-24T06:13:53.864Z,1.5603,0.6463,0.1919,-20.3245,2.3063,-1.2484,-0.84,0.559,1.6641
2025-05-24T06:13:53.875Z,1.3662,0.6931,0.1734,-18.5328,2.758,-0.8724,-0.8824,0.7347,2.2301
2025-05-24T06:13:53.884Z,1.2476,0.8225,0.105,-16.572,2.2478,-0.6,-0.8778,1.1497,2.7007
2025-05-24T06:13:53.894Z,1.0073,0.9463,0.0497,-15.1048,1.0148,0.1077,-0.8461,1.4779,2.9257
2025-05-24T06:13:53.905Z,0.6269,1.0376,0.057,-12.2773,-0.0687,0.6699,-0.7972,1.6266,2.8784
2025-05-24T06:13:53.914Z,-0.0817,1.1384,-0.1611,-8.2042,-0.8877,0.6263,-0.4044,0.9797,2.1859
2025-05-24T06:13:53.925Z,-1.4219,1.3371,-0.3847,-0.2042,-1.9386,3.1783,-0.1884,0.3971,0.2647
2025-05-24T06:13:53.934Z,-2.3671,1.42,0.0616,13.1128,-3.9003,4.6962,-0.5974,0.1592,-2.4673
2025-05-24T06:13:53.945Z,-1.4665,1.5076,-0.1024,20.6394,-4.6229,0.1818,-0.8237,0.6288,-3.5798
2025-05-24T06:13:53.955Z,1.5611,2.0054,-0.7985,8.517,-5.8738,3.2225,-0.6655,2.7903,-0.8239
2025-05-24T06:13:53.964Z,2.3154,2.5671,-0.2022,-21.7788,-11.2322,9.0576,-0.703,2.1618,2.193
2025-05-24T06:13:53.975Z,0.0847,2.697,0.858,-23.379,-16.3584,1.807,-1.1247,-1.1457,2.7249
2025-05-24T06:13:53.984Z,-0.3806,2.2151,0.6868,-1.3807,-16.8126,-7.588,-1.3668,-1.1589,2.8199
2025-05-24T06:13:53.995Z,0.5384,1.6612,0.0972,0.3798,-11.5323,-4.3091,-1.3508,1.1416,3.4376
2025-05-24T06:13:54.005Z,0.4289,1.3103,0.3229,-7.8098,-6.3194,0.875,-1.4206,1.3779,3.6273
2025-05-24T06:13:54.014Z,0.1821,1.0012,0.6782,-5.3427,-2.9754,-1.9985,-1.5333,0.3407,3.5533
2025-05-24T06:13:54.024Z,0.3361,0.7218,0.6975,-3.2101,0.0848,-4.8832,-1.4664,-0.0664,3.6313
2025-05-24T06:13:54.035Z,0.329,0.5393,0.6714,-4.4764,2.7451,-4.7638,-1.114,-0.2504,3.6469
2025-05-24T06:13:54.045Z,0.0945,0.4632,0.588,-3.6525,4.4116,-4.411,-0.6568,-0.4264,3.2595
2025-05-24T06:13:54.055Z,0.0106,0.4995,0.4062,-1.0283,5.0347,-3.3765,-0.4812,-0.2529,2.5223
2025-05-24T06:13:54.064Z,0.2073,0.6859,0.3881,-0.35,4.4935,-1.5868,-0.5428,-0.2668,1.7854
2025-05-24T06:13:54.074Z,0.4808,0.9379,0.4544,-2.3559,2.5049,-1.6275,-0.4916,-0.6858,1.2623
2025-05-24T06:13:54.084Z,0.5754,1.1134,0.3713,-4.8071,0.0549,-2.107,-0.3816,-0.9192,0.7791
2025-05-24T06:13:54.095Z,0.4216,1.1401,0.2075,-5.342,-1.5217,-1.0808,-0.4047,-0.7725,0.1064
2025-05-24T06:13:54.105Z,0.2217,1.0856,0.1648,-3.5973,-1.6321,0.5185,-0.4863,-0.8259,-0.3199
2025-05-24T06:13:54.114Z,0.1519,1.0026,0.1864,-1.7863,-1.0584,0.8021,-0.492,-0.9866,-0.3885
2025-05-24T06:13:54.125Z,0.0588,0.9319,0.1752,-1.1945,-0.2344,0.667,-0.447,-0.8566,-0.4401
2025-05-24T06:13:54.134Z,-0.0621,0.9309,0.1876,-0.2214,0.3677,0.8214,-0.3786,-0.4846,-0.569
2025-05-24T06:13:54.145Z,-0.0826,0.941,0.261,0.8736,0.3149,0.6654,-0.2768,-0.2252,-0.6725
2025-05-24T06:13:54.155Z,-0.0022,0.951,0.3518,0.8246,0.2242,-0.0831,-0.2224,-0.3541,-0.6416
2025-05-24T06:13:54.164Z,0.007,0.9542,0.4454,-0.0044,0.1083,-0.9596,-0.3049,-0.9014,-0.5421
2025-05-24T06:13:54.175Z,-0.0454,0.9271,0.4974,0.0062,0.0991,-1.8462,-0.3746,-1.5552,-0.4535
2025-05-24T06:13:54.184Z,-0.1073,0.8806,0.4216,0.5448,0.3929,-2.1947,-0.3512,-1.7949,-0.3999
2025-05-24T06:13:54.195Z,-0.2036,0.8512,0.2928,1.1928,0.8471,-1.2764,-0.3464,-1.6114,-0.3593
2025-05-24T06:13:54.204Z,-0.315,0.8604,0.2296,2.1855,1.0821,-0.0314,-0.3609,-1.2918,-0.3544
2025-05-24T06:13:54.214Z,-0.3647,0.9014,0.2206,3.2372,0.9348,0.5523,-0.3492,-0.9514,-0.3424
2025-05-24T06:13:54.225Z,-0.3044,0.9645,0.2585,3.6284,0.4934,0.5965,-0.3357,-0.835,-0.2027
2025-05-24T06:13:54.234Z,-0.1922,1.0497,0.2398,2.8898,-0.1653,0.2482,-0.3467,-0.7263,0.1335
2025-05-24T06:13:54.246Z,-0.2083,1.1021,0.181,2.2242,-1.4712,1.1093,-0.3787,-0.4032,0.5085
2025-05-24T06:13:54.254Z,-0.1786,1.1089,0.2234,2.2242,-1.4712,1.1093,-0.3983,-0.3916,0.9431
2025-05-24T06:13:54.264Z,-0.1224,1.1142,0.2397,1.9449,-1.5117,0.6717,-0.3839,-0.4165,1.3692
2025-05-24T06:13:54.276Z,-0.0335,1.12,0.2327,0.7128,-1.6436,0.7266,-0.3671,-0.3105,1.5671
2025-05-24T06:13:54.284Z,0.1219,1.0896,0.215,0.7128,-1.6436,0.7266,-0.3961,-0.1972,1.664
2025-05-24T06:13:54.295Z,0.1676,1.029,0.2495,-0.7189,-0.7358,0.5182,-0.4593,-0.3784,1.7201
2025-05-24T06:13:54.304Z,0.1322,0.9554,0.3207,-0.7189,-0.7358,0.5182,-0.4682,-0.6853,1.7073
2025-05-24T06:13:54.314Z,0.0786,0.9155,0.331,-0.1598,-0.0613,-0.0992,-0.4461,-0.7326,1.6057
2025-05-24T06:13:54.325Z,0.0227,0.9177,0.3294,1.2203,0.1575,-0.0858,-0.4599,-0.6755,1.4206
2025-05-24T06:13:54.335Z,0.0022,0.9601,0.3598,1.5076,-0.3502,-0.3749,-0.4517,-0.7684,1.3345
2025-05-24T06:13:54.345Z,0.0243,1.0301,0.3873,1.4391,-1.0794,-0.5801,-0.4292,-0.884,1.4383
2025-05-24T06:13:54.355Z,0.0374,1.1028,0.3645,1.4768,-1.8324,-0.2874,-0.4056,-0.859,1.5567
2025-05-24T06:13:54.364Z,0.0766,1.157,0.34,1.4768,-1.8324,-0.2874,-0.3744,-0.7896,1.6412
2025-05-24T06:13:54.375Z,0.1239,1.1842,0.3762,0.9853,-2.6524,-0.4787,-0.3563,-0.8524,1.7036
2025-05-24T06:13:54.385Z,0.1379,1.1916,0.4042,1.0541,-2.7729,-0.6802,-0.3398,-0.9942,1.758
2025-05-24T06:13:54.395Z,0.1441,1.1972,0.3718,1.1942,-2.8796,-0.3074,-0.3384,-1.0816,1.8142
2025-05-24T06:13:54.405Z,0.1471,1.2068,0.3145,1.3858,-3.0452,0.2551,-0.3519,-1.1048,1.8645
2025-05-24T06:13:54.415Z,0.1306,1.2167,0.269,1.772,-3.2123,0.6646,-0.3442,-1.0743,1.9235
2025-05-24T06:13:54.425Z,0.1138,1.2475,0.2466,2.1221,-3.6222,0.8705,-0.3173,-1.0551,2.0079
2025-05-24T06:13:54.434Z,0.1284,1.3004,0.2223,2.1511,-4.2302,1.1184,-0.2954,-1.0494,2.1252
2025-05-24T06:13:54.445Z,0.1619,1.3445,0.1909,2.0825,-4.7247,1.3926,-0.2753,-1.0121,2.2448
2025-05-24T06:13:54.455Z,0.1495,1.353,0.1837,2.4685,-4.8631,1.4195,-0.2548,-1.0151,2.3256
2025-05-24T06:13:54.465Z,0.1321,1.342,0.1819,2.8567,-4.8461,1.4206,-0.2452,-1.048,2.3789
2025-05-24T06:13:54.475Z,0.1052,1.324,0.1979,3.3788,-4.7783,1.1929,-0.2316,-1.1042,2.411
2025-05-24T06:13:54.484Z,0.0618,1.3049,0.2422,4.044,-4.7051,0.697,-0.2121,-1.2152,2.4265
2025-05-24T06:13:54.495Z,0.0287,1.2889,0.2739,4.598,-4.6795,0.3836,-0.1807,-1.4009,2.4397
2025-05-24T06:13:54.505Z,-0.0254,1.2938,0.2784,5.4424,-4.8914,0.2269,-0.1265,-1.6763,2.4427
2025-05-24T06:13:54.514Z,-0.126,1.3386,0.3443,6.7038,-5.5146,-0.6037,-0.0507,-2.0259,2.4213
2025-05-24T06:13:54.525Z,-0.2232,1.4231,0.4168,7.8711,-6.5188,-1.3718,-0.0294,-2.5139,2.3593
2025-05-24T06:13:54.534Z,-0.2712,1.5433,0.4039,8.5318,-7.8337,-1.351,-0.1054,-3.1674,2.2962
2025-05-24T06:13:54.545Z,-0.2841,1.6443,0.3645,8.9068,-8.9247,-1.1465,-0.2483,-3.687,2.2828
2025-05-24T06:13:54.554Z,-0.3136,1.7229,0.2771,9.4754,-9.8509,-0.3933,-0.3289,-3.4224,2.2938
2025-05-24T06:13:54.564Z,-0.3944,1.7976,0.2509,10.5533,-10.7151,-0.4018,-0.4597,-1.9414,2.2701
2025-05-24T06:13:54.575Z,-0.5145,1.8521,0.3327,11.8031,-11.3796,-1.0938,-0.6486,0.0921,2.2133
2025-05-24T06:13:54.584Z,-0.4791,1.864,0.3584,11.3384,-11.5753,-1.2119,-0.8214,1.3537,2.3531
2025-05-24T06:13:54.595Z,-0.3667,1.7985,0.4697,10.5142,-11.0983,-2.269,-0.6829,1.4625,2.6524
2025-05-24T06:13:54.605Z,-0.401,1.7401,0.6076,11.0929,-10.7992,-3.5487,-0.3584,0.5913,2.8999
2025-05-24T06:13:54.614Z,-0.2787,1.7218,0.5631,9.7082,-10.869,-2.6736,-0.2264,-0.3246,3.3824
2025-05-24T06:13:54.625Z,-0.0515,1.6369,0.3241,8.0998,-10.1971,-0.6868,-0.348,-0.1953,3.8115
2025-05-24T06:13:54.634Z,-0.1272,1.4618,0.5956,9.0058,-8.6743,-3.4511,-0.6212,0.4933,3.7752
2025-05-24T06:13:54.645Z,-0.0967,1.1936,0.5333,8.9941,-6.2427,-2.1697,-0.592,1.073,3.5995
2025-05-24T06:13:54.655Z,-0.4083,0.9168,0.2907,12.5399,-3.7614,0.1554,-0.2713,0.8114,2.8524
2025-05-24T06:13:54.664Z,-0.6557,0.6164,0.1293,14.5314,-0.8361,1.8428,-0.0465,0.2477,1.6585
2025-05-24T06:13:54.675Z,-0.5742,0.274,-0.158,13.5394,2.4851,4.6943,0.1116,0.3636,0.4049
2025-05-24T06:13:54.684Z,-0.4684,0.0162,-0.2321,12.5063,4.9351,5.0631,0.1422,0.7966,-0.754
2025-05-24T06:13:54.695Z,-0.3808,-0.0928,-0.1069,11.4243,5.9607,3.8753,0.231,0.8234,-1.7262
2025-05-24T06:13:54.705Z,-0.1582,0.0052,-0.0006,8.9727,4.919,2.8043,0.4909,0.5114,-2.3772
2025-05-24T06:13:54.714Z,0.0363,0.2856,0.1412,7.1612,2.3156,1.3901,0.7546,0.179,-2.795
2025-05-24T06:13:54.725Z,-0.0268,0.5518,0.2219,7.8457,0.1013,0.6944,0.9053,0.0198,-3.2722
2025-05-24T06:13:54.734Z,-0.1581,0.7044,0.1943,8.7895,-0.9445,0.9951,0.9904,0.2347,-3.7893
2025-05-24T06:13:54.745Z,-0.1912,0.7563,0.1387,8.7563,-1.014,1.5709,1.0635,0.7659,-4.1639
2025-05-24T06:13:54.755Z,-0.1957,0.7273,0.0978,8.4386,-0.3279,1.8735,1.1314,1.1831,-4.3748
2025-05-24T06:13:54.764Z,-0.1685,0.6838,0.1263,7.8187,0.3485,1.5646,1.209,1.4809,-4.4647
2025-05-24T06:13:54.775Z,-0.1295,0.7066,0.188,7.0003,0.3638,0.9244,1.3205,1.6055,-4.5125
2025-05-24T06:13:54.784Z,-0.0341,0.7798,0.245,5.6011,-0.0999,0.3946,1.4497,1.6006,-4.6211
2025-05-24T06:13:54.795Z,0.103,0.8856,0.2719,3.8246,-0.8639,0.0788,1.5539,1.5258,-4.8363
2025-05-24T06:13:54.805Z,0.2236,1.0121,0.3103,2.2128,-1.8305,-0.3885,1.6299,1.3437,-5.1547
2025-05-24T06:13:54.814Z,0.3228,1.1423,0.3561,0.7887,-2.81,-0.9364,1.6607,1.0819,-5.4552
2025-05-24T06:13:54.825Z,0.3782,1.2421,0.4046,-0.2094,-3.4721,-1.5201,1.6524,0.7733,-5.7113
2025-05-24T06:13:54.835Z,0.3902,1.305,0.4268,-0.8337,-3.8319,-1.8139,1.6519,0.478,-5.9506
2025-05-24T06:13:54.845Z,0.3986,1.3669,0.4167,-1.5409,-4.2613,-1.8695,1.6733,0.4306,-6.1302
2025-05-24T06:13:54.855Z,0.462,1.4577,0.4583,-2.7941,-5.0104,-2.5135,1.6834,0.4567,-6.148
2025-05-24T06:13:54.864Z,0.5414,1.5593,0.5337,-4.1259,-5.8942,-3.3613,1.6541,0.3473,-6.0423
2025-05-24T06:13:54.875Z,0.5996,1.6799,0.5586,-5.26,-7.0201,-3.7137,1.6543,0.2123,-5.8999
2025-05-24T06:13:54.885Z,0.694,1.8221,0.5465,-6.8022,-8.3737,-3.7121,1.6665,0.2008,-5.7171
2025-05-24T06:13:54.895Z,0.8322,1.9214,0.5227,-8.7018,-9.1891,-3.6937,1.6155,0.3853,-5.4507
2025-05-24T06:13:54.904Z,0.9881,1.8698,0.6066,-10.7431,-8.4784,-4.7907,1.4589,0.4983,-5.0372
2025-05-24T06:13:54.914Z,1.1009,1.6914,0.711,-12.0922,-6.7242,-5.8352,1.2557,0.6014,-4.5174
2025-05-24T06:13:54.925Z,1.0365,1.5578,0.7091,-11.6849,-5.5777,-5.8283,1.0673,0.6993,-4.1175
2025-05-24T06:13:54.935Z,0.9236,1.487,0.6659,-11.019,-4.9508,-5.4918,0.9296,0.797,-3.9019
2025-05-24T06:13:54.945Z,0.8971,1.4107,0.6276,-11.2566,-4.2829,-5.2164,0.7497,0.7611,-3.8045
2025-05-24T06:13:54.955Z,0.9782,1.3302,0.5817,-12.5423,-3.5418,-4.7829,0.5021,0.5579,-3.6782
2025-05-24T06:13:54.964Z,1.155,1.2122,0.505,-14.5941,-2.4637,-4.041,0.2935,0.2887,-3.3921
2025-05-24T06:13:54.975Z,1.2729,1.117,0.4242,-15.8991,-1.6568,-3.2503,0.1513,0.0662,-2.962
2025-05-24T06:13:54.984Z,1.2892,1.0054,0.3631,-16.1403,-0.5792,-2.7469,0.0245,0.1973,-2.5087
2025-05-24T06:13:54.994Z,1.2348,0.8749,0.366,-15.8334,0.5842,-2.8055,-0.0946,0.5975,-2.016
2025-05-24T06:13:55.005Z,1.3217,0.8017,0.3578,-16.9918,1.2129,-2.7652,-0.2021,0.9822,-1.2114
2025-05-24T06:13:55.014Z,1.4774,0.742,0.3654,-18.4091,1.7865,-2.7891,-0.3269,1.0418,-0.192
2025-05-24T06:13:55.025Z,1.455,0.6972,0.2895,-17.8347,2.2238,-1.9542,-0.4689,0.9775,0.7062
2025-05-24T06:13:55.036Z,1.2597,0.6841,0.2117,-15.7681,2.357,-1.2749,-0.5644,1.1269,1.3534
2025-05-24T06:13:55.045Z,1.1616,0.7224,0.2132,-14.8282,1.9916,-1.3706,-0.5911,1.5412,1.9601
2025-05-24T06:13:55.055Z,1.1778,0.783,0.25,-14.7896,1.4806,-1.7075,-0.6373,1.8518,2.5303
2025-05-24T06:13:55.064Z,1.1215,0.8329,0.2462,-13.7734,1.0969,-1.5976,-0.725,1.8101,2.8487
2025-05-24T06:13:55.074Z,0.8083,0.8554,0.2376,-10.1,0.9848,-1.6048,-0.8026,1.6949,2.7323
2025-05-24T06:13:55.085Z,0.4014,0.881,0.3081,-6.0433,0.7338,-2.1398,-0.8243,1.763,2.463
2025-05-24T06:13:55.095Z,-0.2083,1.0043,0.0457,0.8905,-0.6863,0.9257,-0.3096,1.0012,1.6748
2025-05-24T06:13:55.105Z,-1.4653,1.2834,-0.2067,13.408,-3.4573,2.6311,-0.0548,0.3118,-0.3024
2025-05-24T06:13:55.114Z,-2.2447,1.4933,0.1703,18.9016,-5.545,-1.0792,-0.6853,0.041,-2.7581
2025-05-24T06:13:55.125Z,-0.793,1.8264,-0.0022,1.0939,-9.3941,1.8761,-1.1097,0.6538,-2.9712
2025-05-24T06:13:55.135Z,2.3029,2.5489,-0.5858,-27.675,-16.449,6.6773,-0.8745,3.3359,0.3317
2025-05-24T06:13:55.146Z,-0.1884,2.6162,1.1309,-18.2411,-19.2303,-1.9616,-0.9971,1.9497,2.7082
2025-05-24T06:13:55.154Z,-0.1884,2.6162,1.1309,0.3805,-15.4717,-9.9258,-1.5739,-1.6436,2.9498
2025-05-24T06:13:55.164Z,0.1073,1.9811,0.3974,-4.2732,-9.2632,-1.172,-1.5348,-0.9441,3.2434
2025-05-24T06:13:55.175Z,0.4976,1.4744,-0.1836,-6.2162,-4.3621,3.0788,-1.3202,1.231,3.2105
2025-05-24T06:13:55.185Z,0.0674,1.0512,0.2092,-1.9426,-0.2904,-1.0219,-1.3202,1.231,3.2105
2025-05-24T06:13:55.195Z,0.1579,0.7058,0.5252,-3.0635,3.0489,-3.6801,-1.2689,0.1965,3.0235
2025-05-24T06:13:55.206Z,0.2604,0.4539,0.651,-3.3628,5.3193,-4.6376,-0.8125,-0.1979,2.7797
2025-05-24T06:13:55.214Z,0.0903,0.3993,0.6226,-1.3706,5.6255,-4.0478,-0.8125,-0.1979,2.7797
2025-05-24T06:13:55.226Z,0.0365,0.5416,0.4077,-0.9356,4.0007,-1.7846,-0.5566,0.0944,1.6528
2025-05-24T06:13:55.235Z,0.1705,0.8183,0.2785,-2.2131,1.2144,-0.8057,-0.5566,0.0944,1.6528
2025-05-24T06:13:55.245Z,0.3441,1.0746,0.4012,-3.8246,-1.1875,-2.0436,-0.5123,-0.9006,0.8294
2025-05-24T06:13:55.255Z,0.4799,1.1923,0.4336,-4.861,-2.1325,-2.0662,-0.4395,-1.0092,0.3961
2025-05-24T06:13:55.264Z,0.3873,1.1279,0.279,-3.6248,-1.3205,-0.3412,-0.4395,-1.0092,0.3961
2025-05-24T06:13:55.275Z,0.1518,1.0034,0.1067,-1.2989,-0.1756,1.2211,-0.594,-0.9132,-0.0867
2025-05-24T06:13:55.285Z,0.0016,0.9427,0.123,0.051,0.3517,0.9341,-0.594,-0.9132,-0.0867
2025-05-24T06:13:55.295Z,-0.0749,0.9114,0.1859,0.747,0.6235,0.4472,-0.4542,-0.4776,-0.1041
2025-05-24T06:13:55.305Z,-0.132,0.9198,0.1537,1.3455,0.4695,0.8914,-0.481,-0.0834,-0.1231
2025-05-24T06:13:55.315Z,-0.2184,0.9528,0.1386,2.1335,0.1577,0.9418,-0.4657,0.0301,-0.0464
2025-05-24T06:13:55.325Z,-0.1729,0.9473,0.2444,1.463,0.233,-0.1381,-0.4182,-0.1327,0.191
2025-05-24T06:13:55.336Z,-0.0276,0.9318,0.3461,0.127,0.3618,-1.0264,-0.4118,-0.5588,0.4223
2025-05-24T06:13:55.345Z,-0.0201,0.9373,0.4008,0.3254,0.2726,-1.4848,-0.4396,-0.9271,0.5062
2025-05-24T06:13:55.355Z,-0.0746,0.9475,0.3944,0.7897,0.2014,-1.2554,-0.4339,-0.9002,0.4488
2025-05-24T06:13:55.365Z,-0.0063,0.9267,0.3012,0.1449,0.3787,-0.2801,-0.4318,-0.7931,0.3608
2025-05-24T06:13:55.375Z,-0.0005,0.9421,0.243,0.2812,0.1742,0.261,-0.4664,-0.761,0.3826
2025-05-24T06:13:55.386Z,-0.0479,0.9695,0.2121,0.7802,-0.0967,0.6288,-0.4893,-0.9226,0.5307
2025-05-24T06:13:55.395Z,-0.1507,1.0074,0.2452,1.0124,-0.2702,0.6719,-0.5011,-0.788,0.6146
2025-05-24T06:13:55.405Z,-0.1507,1.0074,0.2452,2.0174,-0.5287,0.3692,-0.4675,-0.3863,0.7005
2025-05-24T06:13:55.414Z,-0.1638,1.0519,0.2277,2.0151,-0.9707,0.4817,-0.4393,-0.1879,0.8419
2025-05-24T06:13:55.424Z,-0.09,1.0756,0.2735,1.3937,-1.1818,0.1166,-0.4877,-0.4242,1.0451
2025-05-24T06:13:55.436Z,-0.0177,1.0672,0.3013,0.7963,-1.0811,-0.1453,-0.5213,-0.7287,1.1509
2025-05-24T06:13:55.445Z,0.0013,0.9844,0.2971,0.8043,-0.6951,-0.31,-0.4907,-0.7352,1.1536
2025-05-24T06:13:55.455Z,0.0013,0.9844,0.2971,0.8968,-0.3191,0.0895,-0.5017,-0.6411,1.127
2025-05-24T06:13:55.464Z,0.0549,0.9814,0.2539,0.4749,-0.3764,0.5049,-0.5288,-0.7511,1.1406
2025-05-24T06:13:55.475Z,0.1019,1.0148,0.3189,0.2667,-0.5944,0.2361,-0.5312,-0.9184,1.1998
2025-05-24T06:13:55.486Z,0.1019,1.0148,0.3189,0.3671,-0.7446,-0.1103,-0.523,-0.9623,1.2655
2025-05-24T06:13:55.495Z,0.0648,1.0286,0.3546,0.6686,-0.8817,-0.24,-0.5079,-1.0081,1.2995
2025-05-24T06:13:55.505Z,0.0414,1.0291,0.393,1.0415,-0.9434,-0.3967,-0.4914,-1.1017,1.3286
2025-05-24T06:13:55.514Z,0.0414,1.0291,0.393,1.4147,-0.9888,-0.7585,-0.4375,-1.1848,1.416
2025-05-24T06:13:55.525Z,0.0515,1.0696,0.3547,1.52,-1.1395,-0.7642,-0.4513,-1.1867,1.5311
2025-05-24T06:13:55.535Z,0.0515,1.0696,0.3547,1.6453,-1.511,-0.2542,-0.4996,-1.1522,1.6215
2025-05-24T06:13:55.545Z,0.1245,1.1301,0.3164,1.7047,-1.8592,-0.0435,-0.4834,-1.1092,1.7056
2025-05-24T06:13:55.555Z,0.1809,1.1753,0.2932,1.199,-2.2208,0.1386,-0.4742,-1.1029,1.7822
2025-05-24T06:13:55.565Z,0.1896,1.2138,0.2798,0.9029,-2.7261,0.3575,-0.4998,-1.1511,1.8458
2025-05-24T06:13:55.575Z,0.1789,1.2245,0.2482,1.0642,-3.1475,0.5301,-0.5069,-1.1492,1.9128
2025-05-24T06:13:55.585Z,0.1789,1.2245,0.2482,1.3808,-3.2953,0.8148,-0.4792,-1.0924,1.996
2025-05-24T06:13:55.595Z,0.1418,1.2424,0.2693,1.8763,-3.4159,0.6399,-0.4426,-1.045,2.1006
2025-05-24T06:13:55.605Z,0.1735,1.2636,0.2389,2.1249,-3.6582,0.6382,-0.4197,-0.9993,2.2213
2025-05-24T06:13:55.614Z,0.1837,1.2829,0.2246,2.0284,-3.9621,0.9346,-0.4073,-0.9766,2.3112
2025-05-24T06:13:55.625Z,0.1679,1.2857,0.2458,2.2099,-4.2461,1.0283,-0.4041,-1.0118,2.3689
2025-05-24T06:13:55.635Z,0.1668,1.2831,0.2581,2.5721,-4.3607,0.8042,-0.4066,-1.0869,2.4154
2025-05-24T06:13:55.645Z,0.1399,1.2816,0.2868,2.8299,-4.4595,0.6662,-0.416,-1.2212,2.4384
2025-05-24T06:13:55.654Z,0.0941,1.2776,0.3183,3.3685,-4.5666,0.3303,-0.4141,-1.4047,2.4416
2025-05-24T06:13:55.664Z,0.041,1.2933,0.3384,4.0637,-4.6606,0.0067,-0.4066,-1.6739,2.4539
2025-05-24T06:13:55.674Z,-0.0313,1.3359,0.3779,4.8559,-4.9949,-0.2748,-0.3941,-2.033,2.4521
2025-05-24T06:13:55.686Z,-0.1266,1.4002,0.3971,5.8329,-5.5725,-0.7244,-0.3794,-2.4102,2.3849
2025-05-24T06:13:55.695Z,-0.2271,1.5217,0.4258,7.0391,-6.3881,-1.0201,-0.3973,-2.7777,2.2291
2025-05-24T06:13:55.704Z,-0.2714,1.6801,0.404,8.2443,-7.7866,-1.4369,-0.4625,-3.1553,2.0753
2025-05-24T06:13:55.714Z,-0.26,1.8127,0.3151,8.8114,-9.4812,-1.2693,-0.5558,-3.2074,2.0237
2025-05-24T06:13:55.725Z,-0.3241,1.903,0.2544,8.9275,-10.8737,-0.4947,-0.6108,-2.3797,1.9698
2025-05-24T06:13:55.735Z,-0.4282,1.9552,0.3059,9.8727,-11.8453,-0.1592,-0.6654,-0.9982,1.9201
2025-05-24T06:13:55.745Z,-0.3981,1.9814,0.2905,10.9502,-12.4619,-0.6443,-0.7536,0.1824,2.08
2025-05-24T06:13:55.754Z,-0.3824,1.9624,0.3872,10.6343,-12.8374,-0.4303,-0.6799,0.6299,2.3073
2025-05-24T06:13:55.764Z,-0.5691,1.875,0.56,10.869,-12.7584,-1.4343,-0.3605,-0.0722,2.3444
2025-05-24T06:13:55.775Z,-0.5129,1.7624,0.6457,12.8963,-11.9842,-3.2556,-0.1486,-0.973,2.5747
2025-05-24T06:13:55.784Z,-0.1754,1.699,0.4234,11.9568,-11.1298,-3.66,-0.2088,-0.9899,3.2363
2025-05-24T06:13:55.795Z,-0.1021,1.5728,0.5742,9.0083,-10.7708,-1.6683,-0.5329,-0.138,3.5873
2025-05-24T06:13:55.804Z,-0.1869,1.3451,0.5955,8.7738,-9.6839,-3.4501,-0.5085,0.6138,3.502
2025-05-24T06:13:55.814Z,-0.4687,1.0487,0.3947,9.9527,-7.6148,-3.1251,-0.1921,0.4933,2.8471
2025-05-24T06:13:55.825Z,-0.6196,0.7164,0.1375,13.0118,-4.8571,-1.0437,0.0796,-0.0184,1.8109
2025-05-24T06:13:55.835Z,-0.4836,0.3719,-0.1693,14.0857,-1.6805,1.5443,0.218,0.0831,0.7105
2025-05-24T06:13:55.845Z,-0.4003,0.0868,-0.2686,12.701,1.6488,4.5208,0.2369,0.677,-0.3084
2025-05-24T06:13:55.854Z,-0.3436,-0.058,-0.1379,11.948,4.3533,5.1151,0.3025,1.0228,-1.1842
2025-05-24T06:13:55.864Z,-0.2134,-0.0159,-0.0234,11.2258,5.6857,3.8607,0.548,0.9788,-1.8532
2025-05-24T06:13:55.875Z,-0.0809,0.1681,0.1319,9.7603,5.2239,2.7551,0.8373,0.725,-2.358
2025-05-24T06:13:55.884Z,-0.0488,0.3683,0.2241,8.3738,3.5362,1.2284,1.0455,0.6748,-2.8413
2025-05-24T06:13:55.895Z,-0.1229,0.5004,0.2002,8.0405,1.8813,0.4943,1.1439,0.9676,-3.3426
2025-05-24T06:13:55.904Z,-0.1958,0.5449,0.178,8.5962,0.9802,0.7811,1.2142,1.2935,-3.7717
2025-05-24T06:13:55.914Z,-0.2092,0.5307,0.1693,8.9799,0.9549,0.993,1.315,1.6098,-4.0711
2025-05-24T06:13:55.925Z,-0.2161,0.5302,0.1772,8.7493,1.4303,1.0993,1.4153,1.9193,-4.269
2025-05-24T06:13:55.934Z,-0.21,0.5784,0.2374,8.4847,1.7084,1.0122,1.4801,2.0984,-4.4053
2025-05-24T06:13:55.945Z,-0.128,0.6679,0.2984,7.9915,1.4765,0.3976,1.5401,2.1194,-4.5278
2025-05-24T06:13:55.955Z,0.0086,0.7597,0.3698,6.686,0.8972,-0.1962,1.651,1.9816,-4.7188
2025-05-24T06:13:55.964Z,0.1431,0.8673,0.4143,4.8947,0.2848,-0.9157,1.735,1.7375,-4.9963
2025-05-24T06:13:55.975Z,0.2308,0.9993,0.4422,3.1655,-0.4957,-1.3689,1.7431,1.4691,-5.3298
2025-05-24T06:13:55.984Z,0.2755,1.1373,0.4818,1.9029,-1.5304,-1.7265,1.7269,1.1623,-5.6358
2025-05-24T06:13:55.995Z,0.3263,1.2508,0.5205,0.9613,-2.5925,-2.2332,1.7375,0.9073,-5.8663
2025-05-24T06:13:56.005Z,0.3603,1.3429,0.5715,-0.0974,-3.4344,-2.7505,1.7559,0.7251,-6.0419
2025-05-24T06:13:56.014Z,0.4025,1.4264,0.6033,-0.96,-4.1002,-3.3824,1.7641,0.8134,-6.1274
2025-05-24T06:13:56.025Z,0.4962,1.5189,0.6606,-2.0189,-4.7462,-3.8195,1.7251,1.1101,-6.0656
2025-05-24T06:13:56.037Z,0.4962,1.5189,0.6606,-5.271,-6.4317,-5.5929,1.6694,1.2031,-5.8786
2025-05-24T06:13:56.044Z,0.7729,1.7265,0.8063,-5.271,-6.4317,-5.5929,1.6231,1.0661,-5.5555
2025-05-24T06:13:56.055Z,0.9169,1.8103,0.7557,-9.2995,-8.1314,-5.7347,1.5401,1.0152,-5.1795
2025-05-24T06:13:56.064Z,0.9803,1.8249,0.6766,-9.2995,-8.1314,-5.7347,1.3918,0.8977,-4.8577
2025-05-24T06:13:56.074Z,1.0318,1.7901,0.6567,-10.3434,-8.2002,-5.1706,1.2342,0.6012,-4.5839
2025-05-24T06:13:56.084Z,1.0253,1.7033,0.6271,-11.2766,-7.8246,-5.1234,1.1265,0.3778,-4.4078
2025-05-24T06:13:56.094Z,0.9581,1.6269,0.5879,-11.5173,-6.9835,-4.9061,1.0681,0.3776,-4.3384
2025-05-24T06:13:56.105Z,0.9571,1.5957,0.5613,-11.8286,-6.1273,-4.519,0.9529,0.6463,-4.3
2025-05-24T06:13:56.114Z,1.0597,1.4997,0.606,-11.8286,-6.1273,-4.519,0.7479,0.8873,-4.1118
2025-05-24T06:13:56.125Z,1.1832,1.307,0.6729,-14.8627,-3.3061,-5.7956,0.4878,0.9261,-3.7149
2025-05-24T06:13:56.136Z,1.3305,1.1227,0.6605,-16.5486,-1.6435,-5.6292,0.2306,0.687,-3.1104
2025-05-24T06:13:56.145Z,1.3702,0.9934,0.5547,-16.9623,-0.508,-4.4218,0.0053,0.386,-2.4625
2025-05-24T06:13:56.155Z,1.2908,0.8928,0.3736,-16.3416,0.372,-2.7085,-0.17,0.2937,-1.8622
2025-05-24T06:13:56.164Z,1.3549,0.8508,0.3,-16.3416,0.372,-2.7085,-0.2916,0.3735,-1.0844
2025-05-24T06:13:56.175Z,1.5305,0.828,0.3096,-18.9411,0.9597,-2.252,-0.4009,0.5273,-0.1455
2025-05-24T06:13:56.185Z,1.5161,0.7519,0.34,-18.422,1.7476,-2.5077,-0.5358,0.6362,0.7475
2025-05-24T06:13:56.195Z,1.3222,0.6905,0.3348,-16.3322,2.3591,-2.3746,-0.6799,0.8221,1.4785
2025-05-24T06:13:56.205Z,1.1533,0.6956,0.2989,-14.5388,2.2347,-1.9757,-0.782,1.1741,2.084
2025-05-24T06:13:56.214Z,0.9843,0.8142,0.2353,-14.5388,2.2347,-1.9757,-0.8144,1.5802,2.4982
2025-05-24T06:13:56.225Z,0.8513,0.9797,0.1647,-11.2508,-0.4701,-0.5757,-0.8276,2.0914,2.7933
2025-05-24T06:13:56.235Z,0.7867,1.067,0.1201,-10.0441,-1.1369,-0.2273,-0.758,2.2862,2.9847
2025-05-24T06:13:56.245Z,0.011,1.1579,0.0255,-0.9811,-2.132,0.8311,-0.4439,1.2298,2.2968
2025-05-24T06:13:56.255Z,-1.4522,1.3445,0.0506,13.2929,-3.958,0.1911,-0.4812,0.187,0.3226
2025-05-24T06:13:56.265Z,-2.2245,1.424,0.4067,18.691,-4.6614,-3.2185,-1.0726,-0.048,-2.2069
2025-05-24T06:13:56.275Z,-0.8213,1.5441,0.2458,1.5621,-6.327,-0.2412,-1.4009,1.2686,-2.574
2025-05-24T06:13:56.285Z,2.3372,2.1262,-0.5247,-28.251,-12.369,6.3452,-0.9482,4.2955,0.7882
2025-05-24T06:13:56.295Z,1.9177,2.5979,0.2352,-18.2082,-16.3431,-2.979,-0.8795,2.0605,3.0658
2025-05-24T06:13:56.305Z,-0.2424,2.592,1.3056,0.9507,-15.5995,-11.107,-1.5504,-2.1217,3.0929
2025-05-24T06:13:56.314Z,0.1111,2.0826,0.25,-4.2833,-10.2287,0.6935,-1.4706,-1.1199,3.2252
2025-05-24T06:13:56.325Z,0.6042,1.5387,-0.4255,-7.3148,-4.9641,5.5795,-1.2155,1.3619,3.5454
2025-05-24T06:13:56.335Z,0.2509,1.0921,0.0849,-3.63,-0.6831,0.1128,-1.2752,0.7677,3.388
2025-05-24T06:13:56.345Z,0.3363,0.7385,0.5735,-4.6049,2.6888,-3.9898,-1.4419,-0.391,3.3198
2025-05-24T06:13:56.355Z,0.3766,0.5207,0.6133,-4.1382,4.5889,-3.9212,-1.2318,-0.6774,3.3069
2025-05-24T06:13:56.364Z,0.0687,0.5012,0.5187,-0.8022,4.5772,-2.8494,-0.801,-0.6475,2.8835
2025-05-24T06:13:56.375Z,-0.0217,0.6172,0.3399,-0.1935,3.3116,-1.0164,-0.6129,-0.0893,2.1491
2025-05-24T06:13:56.385Z,0.1532,0.8232,0.3389,-1.9229,1.2133,-1.3459,-0.6171,0.276,1.4362
2025-05-24T06:13:56.394Z,0.3817,1.0249,0.4875,-4.0631,-0.6901,-2.5981,-0.5036,-0.1017,0.978
2025-05-24T06:13:56.405Z,0.4854,1.1295,0.4313,-4.6466,-1.5697,-1.8059,-0.377,-0.5038,0.6332
2025-05-24T06:13:56.414Z,0.2833,1.0866,0.2911,-2.4362,-0.9808,-0.3926,-0.4035,-0.5868,0.2514
2025-05-24T06:13:56.424Z,0.1085,0.9808,0.201,-0.9217,-0.0057,0.4102,-0.4605,-0.6728,0.023
2025-05-24T06:13:56.435Z,0.0479,0.9369,0.1985,-0.3261,0.351,0.443,-0.4318,-0.8264,-0.037
2025-05-24T06:13:56.445Z,-0.0226,0.937,0.1709,0.3612,0.2818,0.8041,-0.3956,-0.7038,-0.0722
2025-05-24T06:13:56.455Z,-0.0495,0.9669,0.1337,0.5614,-0.0295,1.1523,-0.4003,-0.3948,-0.0731
2025-05-24T06:13:56.464Z,-0.0535,0.9881,0.1665,0.6079,-0.2184,0.7728,-0.379,-0.1989,-0.0383
2025-05-24T06:13:56.474Z,-0.0568,0.9894,0.2519,0.6528,-0.2084,-0.0569,-0.3601,-0.1826,0.0202
2025-05-24T06:13:56.485Z,-0.0772,0.9669,0.3281,0.8985,0.0209,-0.7352,-0.3753,-0.3188,0.0784
2025-05-24T06:13:56.495Z,-0.0997,0.9295,0.3791,1.1069,0.3833,-1.1618,-0.3984,-0.6104,0.1329
2025-05-24T06:13:56.505Z,-0.0806,0.903,0.3939,0.9436,0.6019,-1.2022,-0.403,-0.9352,0.2265
2025-05-24T06:13:56.514Z,-0.0756,0.9174,0.3411,1.024,0.3921,-0.5752,-0.4119,-1.0508,0.3306
2025-05-24T06:13:56.525Z,-0.1313,0.9524,0.2719,1.6805,0.0522,0.0857,-0.4374,-0.9722,0.38
2025-05-24T06:13:56.534Z,-0.1675,0.9696,0.2552,1.9534,-0.1148,0.2078,-0.4484,-0.8744,0.4224
2025-05-24T06:13:56.545Z,-0.1011,0.9778,0.2802,1.3969,-0.2201,0.0936,-0.4708,-0.8439,0.5583
2025-05-24T06:13:56.554Z,-0.1135,0.9916,0.2393,1.6758,-0.3659,0.4187,-0.4656,-0.6918,0.6992
2025-05-24T06:13:56.564Z,-0.1256,1.0128,0.2782,1.8572,-0.6005,0.1781,-0.4769,-0.56,0.8267
2025-05-24T06:13:56.575Z,-0.0694,1.0267,0.2495,1.2902,-0.7433,0.4391,-0.4783,-0.4937,1.0312
2025-05-24T06:13:56.585Z,0.0074,1.0399,0.2858,0.7624,-0.8801,0.1175,-0.5122,-0.6414,1.2031
2025-05-24T06:13:56.594Z,0.0285,1.028,0.2724,0.6904,-0.7866,0.381,-0.5297,-0.7106,1.2546
2025-05-24T06:13:56.604Z,0.085,1.0307,0.2351,0.2264,-0.8655,0.7481,-0.5363,-0.6605,1.2853
2025-05-24T06:13:56.614Z,0.1556,1.0309,0.2214,-0.2783,-0.8682,0.9101,-0.5494,-0.6318,1.3295
2025-05-24T06:13:56.625Z,0.1677,1.0075,0.2411,-0.1915,-0.6697,0.6757,-0.5851,-0.7333,1.3423
2025-05-24T06:13:56.634Z,0.1492,0.9952,0.3253,0.1628,-0.6127,-0.143,-0.5783,-0.9255,1.3423
2025-05-24T06:13:56.645Z,0.1047,1.0123,0.391,0.7896,-0.8561,-0.6902,-0.5464,-1.0683,1.3373
2025-05-24T06:13:56.655Z,0.0431,1.0362,0.4157,1.5566,-1.1022,-0.8993,-0.5209,-1.1434,1.3717
2025-05-24T06:13:56.664Z,0.0002,1.0429,0.4459,2.1043,-1.2202,-1.1852,-0.4832,-1.192,1.4443
2025-05-24T06:13:56.674Z,0.0058,1.0686,0.4525,2.1423,-1.5605,-1.1526,-0.4652,-1.1549,1.5479
2025-05-24T06:13:56.684Z,0.0684,1.1234,0.4177,1.6694,-2.1654,-0.8094,-0.481,-1.1126,1.6778
2025-05-24T06:13:56.695Z,0.1528,1.1757,0.4095,1.0457,-2.7185,-0.7434,-0.4977,-1.1437,1.7819
2025-05-24T06:13:56.705Z,0.1874,1.2096,0.3997,1.0259,-3.0932,-0.6075,-0.5275,-1.2491,1.8144
2025-05-24T06:13:56.714Z,0.1658,1.2244,0.3727,1.4312,-3.2908,-0.3058,-0.5457,-1.3735,1.8124
2025-05-24T06:13:56.725Z,0.1625,1.2265,0.3109,1.6776,-3.3769,0.3163,-0.5374,-1.4531,1.8707
2025-05-24T06:13:56.734Z,0.131,1.2249,0.276,2.2511,-3.4694,0.5926,-0.5345,-1.4905,1.9849
2025-05-24T06:13:56.744Z,0.0784,1.2483,0.2517,2.9849,-3.8273,0.8659,-0.4782,-1.4567,2.1234
2025-05-24T06:13:56.755Z,0.0592,1.3121,0.1915,3.3601,-4.6001,1.4525,-0.4334,-1.3909,2.2887
2025-05-24T06:13:56.764Z,0.0831,1.3836,0.1415,3.3558,-5.3898,1.8894,-0.4507,-1.3184,2.4877
2025-05-24T06:13:56.775Z,0.0861,1.4205,0.1308,3.6417,-5.8308,1.9261,-0.4563,-1.2383,2.6453
2025-05-24T06:13:56.784Z,0.0707,1.4275,0.1581,4.0266,-6.0305,1.6098,-0.4504,-1.1943,2.7374
2025-05-24T06:13:56.795Z,0.0685,1.432,0.2054,4.337,-6.2182,1.1009,-0.4638,-1.25,2.782
2025-05-24T06:13:56.805Z,0.0173,1.4319,0.2696,5.1516,-6.3755,0.4181,-0.4829,-1.4507,2.7844
2025-05-24T06:13:56.814Z,-0.0462,1.4527,0.3159,6.0288,-6.7802,-0.08,-0.4673,-1.7795,2.765
2025-05-24T06:13:56.825Z,-0.1353,1.5083,0.3891,7.2424,-7.5323,-0.9703,-0.4411,-2.1613,2.6449
2025-05-24T06:13:56.834Z,-0.2772,1.6176,0.4996,8.8772,-8.8349,-2.1483,-0.4326,-2.5918,2.3664
2025-05-24T06:13:56.845Z,-0.3442,1.7824,0.5314,9.5917,-10.6107,-2.4796,-0.4944,-3.0807,2.0657
2025-05-24T06:13:56.855Z,-0.2952,1.921,0.4537,9.2618,-12.0258,-1.7864,-0.5609,-3.3949,1.921
2025-05-24T06:13:56.864Z,-0.2365,2.0163,0.3685,8.9401,-13.0895,-1.2007,-0.5652,-2.8957,1.925
2025-05-24T06:13:56.875Z,-0.2579,2.1056,0.3647,9.4774,-14.0694,-1.2163,-0.5489,-1.6899,2.0024
2025-05-24T06:13:56.884Z,-0.4328,2.093,0.3489,11.4666,-13.8806,-1.0991,-0.6443,-0.3731,2.0368
2025-05-24T06:13:56.895Z,-0.6348,1.9216,0.406,13.5151,-12.2499,-1.569,-0.5471,0.3918,1.9595
2025-05-24T06:13:56.904Z,-0.759,1.7219,0.452,14.6068,-10.4165,-2.2655,-0.1133,-0.1339,1.8304
2025-05-24T06:13:56.914Z,-0.5394,1.5617,0.4922,12.1477,-9.1647,-2.299,0.1059,-1.1436,2.1509
2025-05-24T06:13:56.925Z,-0.1595,1.5162,0.447,8.7845,-8.9745,-2.4558,-0.3133,-1.085,3.0124
2025-05-24T06:13:56.934Z,0.0196,1.3705,0.631,7.653,-7.677,-3.812,-0.5842,0.0438,3.5731
2025-05-24T06:13:56.945Z,-0.2984,1.1555,0.52,11.5063,-5.7553,-2.5338,-0.4675,0.925,3.3251
2025-05-24T06:13:56.955Z,-0.7064,0.8852,0.3783,15.0332,-3.2094,-1.0287,-0.2151,0.6023,2.4162
2025-05-24T06:13:56.964Z,-0.5493,0.5851,0.1105,13.0688,-0.3669,1.8025,0.0719,0.0355,1.4514
2025-05-24T06:13:56.974Z,-0.317,0.3016,-0.1767,11.0905,2.3623,4.3488,0.277,0.2,0.5486
2025-05-24T06:13:56.984Z,-0.3141,0.0482,-0.1989,11.1582,4.8598,4.3914,0.2809,0.6641,-0.4094
2025-05-24T06:13:56.995Z,-0.3789,-0.1323,-0.1159,11.7126,6.6066,3.5662,0.277,0.9579,-1.4227
2025-05-24T06:13:57.006Z,-0.3872,-0.1297,0.0075,11.4387,6.512,2.4069,0.6951,1.0502,-2.9947
2025-05-24T06:13:57.014Z,-0.2294,0.0935,0.0953,9.6152,4.3828,1.6563,0.6951,1.0502,-2.9947
2025-05-24T06:13:57.026Z,-0.1443,0.3783,0.1318,8.7474,1.957,1.3639,1.0468,1.2668,-3.6776
2025-05-24T06:13:57.034Z,-0.1532,0.5393,0.1318,8.56,0.8459,1.4573,1.0468,1.2668,-3.6776
2025-05-24T06:13:57.045Z,-0.1347,0.5876,0.1021,8.0813,0.769,1.7551,1.2506,1.8714,-4.1468
2025-05-24T06:13:57.056Z,-0.1392,0.5912,0.1227,7.7909,1.0612,1.5683,1.4123,2.0335,-4.4163
2025-05-24T06:13:57.064Z,-0.1043,0.5981,0.1482,6.9985,1.2875,1.3109,1.4123,2.0335,-4.4163
2025-05-24T06:13:57.075Z,-0.028,0.6454,0.2093,5.8434,1.0683,0.6775,1.6652,1.7925,-4.9188
2025-05-24T06:13:57.088Z,0.0539,0.7364,0.2692,4.584,0.4746,0.0742,1.6652,1.7925,-4.9188
2025-05-24T06:13:57.095Z,0.1561,0.8404,0.3227,3.1183,-0.2597,-0.5085,1.7527,1.5108,-5.4928
2025-05-24T06:13:57.106Z,0.2404,0.9682,0.3715,1.8433,-1.2599,-1.0551,1.7205,1.3876,-5.7569
2025-05-24T06:13:57.114Z,0.2993,1.1241,0.429,0.7175,-2.5056,-1.7741,1.7205,1.3876,-5.7569
2025-05-24T06:13:57.125Z,0.3891,1.2642,0.5327,-0.7376,-3.6078,-2.9348,1.8214,0.6459,-5.9036
2025-05-24T06:13:57.134Z,0.4672,1.3869,0.6077,-1.9881,-4.5906,-3.7145,1.8359,0.6456,-5.8147
2025-05-24T06:13:57.145Z,0.5437,1.5147,0.6245,-3.3834,-5.6693,-4.0357,1.705,0.8103,-5.6063
2025-05-24T06:13:57.155Z,0.6818,1.6152,0.6882,-5.2392,-6.4523,-4.8733,1.5922,0.8327,-5.3945
2025-05-24T06:13:57.165Z,0.7301,1.6751,0.7523,-6.1114,-6.9032,-5.5636,1.5926,0.7589,-5.2081
2025-05-24T06:13:57.175Z,0.7383,1.7043,0.75,-6.7239,-7.0867,-5.5939,1.555,0.8734,-5.0644
2025-05-24T06:13:57.185Z,0.7693,1.7051,0.6422,-7.5643,-7.0106,-4.5817,1.3888,1.0177,-4.9348
2025-05-24T06:13:57.195Z,0.8293,1.66,0.556,-8.6621,-6.5158,-4.0199,1.2069,0.9864,-4.7467
2025-05-24T06:13:57.205Z,1.0025,1.5872,0.6355,-10.0016,-6.086,-4.5661,1.0969,0.8448,-4.4843
2025-05-24T06:13:57.214Z,1.0025,1.5872,0.6355,-11.2282,-5.8953,-5.0608,1.0192,0.8303,-4.3273
2025-05-24T06:13:57.225Z,0.844,1.4923,0.5256,-11.1373,-5.5467,-4.7477,0.8984,1.0911,-4.3578
2025-05-24T06:13:57.235Z,0.844,1.4923,0.5256,-10.3734,-5.0551,-4.0945,0.7218,1.226,-4.3567
2025-05-24T06:13:57.246Z,0.9849,1.3551,0.598,-11.0604,-4.601,-4.3244,0.5166,1.0591,-4.1342
2025-05-24T06:13:57.255Z,0.9849,1.3551,0.598,-12.8318,-3.8302,-5.0973,0.3398,0.6632,-3.7653
2025-05-24T06:13:57.264Z,1.067,1.2262,0.5986,-13.8455,-2.7157,-5.0803,0.1549,0.3278,-3.2375
2025-05-24T06:13:57.275Z,1.2027,1.1017,0.4731,-14.7273,-2.2381,-4.4321,-0.0499,0.1429,-2.5874
2025-05-24T06:13:57.284Z,1.2027,1.1017,0.4731,-15.7328,-1.7027,-3.8639,-0.2094,-0.0059,-1.817
2025-05-24T06:13:57.295Z,1.5121,0.861,0.4352,-17.0785,-0.5763,-3.76,-0.3673,-0.0512,-0.8333
2025-05-24T06:13:57.305Z,1.5817,0.7619,0.3752,-19.0847,0.5887,-3.393,-0.518,-0.0789,0.2009
2025-05-24T06:13:57.314Z,1.5817,0.7619,0.3752,-19.3787,1.564,-2.7412,-0.6234,0.1311,0.9424
2025-05-24T06:13:57.325Z,1.3377,0.6722,0.2742,-16.6158,2.4093,-1.6121,-0.6797,0.5831,1.5345
2025-05-24T06:13:57.334Z,1.06,0.7269,0.1902,-13.9595,1.701,-0.9437,-0.6928,0.9232,2.0981
2025-05-24T06:13:57.345Z,0.9467,0.9729,0.1572,-13.215,0.2727,-1.0381,-0.7074,1.2728,2.5104
2025-05-24T06:13:57.355Z,0.7419,1.0121,0.1229,-12.4655,-0.4327,-0.4924,-0.7847,1.6102,2.6243
2025-05-24T06:13:57.365Z,0.6033,1.0079,0.1445,-10.1557,-0.7239,-0.1829,-0.8202,1.9391,2.6864
2025-05-24T06:13:57.374Z,0.1311,1.0014,0.1277,-8.6156,-0.5214,-0.4797,-0.5478,1.3871,2.2763
2025-05-24T06:13:57.384Z,-0.9688,1.1414,0.0531,-2.8889,-0.5551,-0.0896,-0.3704,0.3655,0.8952
2025-05-24T06:13:57.395Z,-1.8247,1.2532,0.2285,8.1926,-2.0275,0.483,-0.6851,-0.0019,-1.2075
2025-05-24T06:13:57.405Z,-1.1645,1.3643,0.1299,15.3417,-3.052,-1.336,-0.8712,0.6211,-2.1038
2025-05-24T06:13:57.415Z,1.2738,1.8381,-0.4645,6.0909,-4.4435,0.5488,-0.5694,2.5775,0.0193
2025-05-24T06:13:57.425Z,1.9417,2.5221,-0.111,-18.2816,-9.6304,6.0571,-0.5809,1.7487,2.4142
2025-05-24T06:13:57.434Z,0.1395,2.6783,0.963,-19.9641,-15.9749,0.8826,-1.3263,-1.3283,2.7391
2025-05-24T06:13:57.445Z,0.0788,2.2508,0.5287,-2.4259,-16.5932,-8.5169,-1.5413,-0.8141,2.8487
2025-05-24T06:13:57.455Z,0.7807,1.8077,-0.066,-4.1577,-11.9955,-2.5348,-1.2591,1.0918,3.3437
2025-05-24T06:13:57.464Z,0.3662,1.4095,0.2202,-9.4896,-7.7912,2.2299,-1.1098,0.7133,3.2631
2025-05-24T06:13:57.475Z,0.2244,0.9616,0.4133,-4.6608,-3.7475,-0.93,-1.3278,-0.0348,2.9708
2025-05-24T06:13:57.484Z,0.2244,0.9616,0.4133,-3.7271,0.6106,-2.2223,-1.3143,0.0409,2.8017
2025-05-24T06:13:57.494Z,0.1747,0.5171,0.5355,-4.3879,3.4822,-2.0026,-0.9825,-0.1433,2.4927
2025-05-24T06:13:57.505Z,0.0136,0.5193,0.5581,-2.2794,4.5595,-3.4213,-0.6695,-0.3374,1.9376
2025-05-24T06:13:57.514Z,0.0654,0.6494,0.4083,-0.7624,4.386,-3.2118,-0.5573,-0.1972,1.2922
2025-05-24T06:13:57.525Z,0.2362,0.8742,0.4271,-1.3676,2.9443,-1.7904,-0.5071,-0.3494,0.7916
2025-05-24T06:13:57.534Z,0.3762,1.0757,0.4317,-3.0173,0.6932,-2.0796,-0.4234,-0.7157,0.5024
2025-05-24T06:13:57.545Z,0.3252,1.144,0.335,-4.1666,-1.1766,-1.9141,-0.3986,-0.9878,0.2741
2025-05-24T06:13:57.554Z,0.1489,1.0677,0.2247,-3.3825,-1.6544,-0.8854,-0.4234,-1.1002,0.0655
2025-05-24T06:13:57.564Z,-0.0154,0.9723,0.1507,-1.5987,-0.8175,0.242,-0.4503,-1.0426,-0.0703
2025-05-24T06:13:57.575Z,-0.1175,0.9283,0.1503,-0.016,0.0564,0.9111,-0.4229,-0.8256,-0.1457
2025-05-24T06:13:57.585Z,-0.1295,0.9147,0.1521,0.8654,0.4381,0.9096,-0.363,-0.4372,-0.1512
2025-05-24T06:13:57.595Z,-0.1344,0.9289,0.1919,0.9205,0.5288,0.9157,-0.3233,-0.0771,-0.1137
2025-05-24T06:13:57.605Z,-0.1156,0.9502,0.2863,0.9755,0.3512,0.4768,-0.3111,-0.0262,-0.0089
2025-05-24T06:13:57.614Z,-0.0662,0.9488,0.3598,0.7261,0.1518,-0.438,-0.3168,-0.3045,0.1642
2025-05-24T06:13:57.625Z,-0.0761,0.9294,0.3989,0.3064,0.189,-1.0657,-0.3411,-0.699,0.3298
2025-05-24T06:13:57.635Z,-0.1197,0.9134,0.3796,0.5349,0.3694,-1.383,-0.3372,-0.9544,0.4008
2025-05-24T06:13:57.645Z,-0.1636,0.894,0.3163,1.021,0.5294,-1.0669,-0.3186,-0.9877,0.3309
2025-05-24T06:13:57.655Z,-0.1769,0.9037,0.2794,1.514,0.6922,-0.4255,-0.3264,-0.8876,0.302
2025-05-24T06:13:57.664Z,-0.1244,0.9485,0.2492,1.5839,0.5469,-0.0565,-0.3123,-0.7548,0.3714
2025-05-24T06:13:57.674Z,-0.1047,1.0029,0.2495,1.1306,0.0691,0.2467,-0.3031,-0.6999,0.4764
2025-05-24T06:13:57.685Z,-0.0601,1.0396,0.2726,1.0077,-0.469,0.2362,-0.3516,-0.8301,0.6283
2025-05-24T06:13:57.695Z,-0.1293,1.0343,0.1899,0.7333,-0.8015,0.1004,-0.3402,-0.4669,0.7325
2025-05-24T06:13:57.705Z,-0.1624,1.0138,0.2383,1.5228,-0.7011,0.9522,-0.3653,-0.5112,0.8201
2025-05-24T06:13:57.714Z,-0.1843,1.0119,0.2812,1.9265,-0.5339,0.3427,-0.3945,-0.5904,0.9177
2025-05-24T06:13:57.725Z,-0.1395,1.0303,0.218,2.1532,-0.5453,0.1271,-0.4099,-0.5268,1.071
2025-05-24T06:13:57.735Z,-0.1391,1.0513,0.2243,1.8603,-0.7767,0.7866,-0.4576,-0.5132,1.218
2025-05-24T06:13:57.745Z,-0.0401,1.0625,0.2513,1.952,-0.9815,0.6485,-0.4601,-0.5011,1.4029
2025-05-24T06:13:57.755Z,0.0292,1.0495,0.2361,1.0274,-1.1013,0.4857,-0.4566,-0.4728,1.5088
2025-05-24T06:13:57.764Z,0.0121,1.026,0.2393,0.6688,-0.9759,0.6848,-0.5078,-0.4854,1.5411
2025-05-24T06:13:57.775Z,0.0488,1.0209,0.2879,0.9594,-0.7779,0.638,-0.5241,-0.5587,1.557
2025-05-24T06:13:57.784Z,0.0802,1.033,0.3265,0.7225,-0.7918,0.18,-0.5038,-0.6346,1.5671
2025-05-24T06:13:57.795Z,0.0666,1.0508,0.3823,0.6399,-0.9539,-0.1446,-0.4898,-0.7489,1.5665
2025-05-24T06:13:57.805Z,0.0601,1.0677,0.4233,0.9519,-1.1712,-0.7066,-0.4529,-0.8829,1.5908
2025-05-24T06:13:57.814Z,0.0619,1.081,0.4019,1.1794,-1.3789,-0.9865,-0.4257,-0.9706,1.6619
2025-05-24T06:13:57.825Z,0.0872,1.0783,0.3919,1.3312,-1.5392,-0.7416,-0.4067,-1.0395,1.7509
2025-05-24T06:13:57.834Z,0.1234,1.0875,0.3648,1.2328,-1.5563,-0.639,-0.3961,-1.0782,1.8207
2025-05-24T06:13:57.845Z,0.1422,1.1119,0.3476,1.094,-1.7219,-0.329,-0.4186,-1.0928,1.8694
2025-05-24T06:13:57.855Z,0.1731,1.1357,0.3327,1.1141,-2.0254,-0.188,-0.4326,-1.0964,1.9233
2025-05-24T06:13:57.866Z,0.1868,1.1631,0.3091,1.1311,-2.6561,0.2082,-0.4403,-1.1184,1.9799
2025-05-24T06:13:57.875Z,0.172,1.1818,0.3088,1.1311,-2.6561,0.2082,-0.4395,-1.1665,2.052
2025-05-24T06:13:57.884Z,0.1386,1.2062,0.3087,1.5214,-2.9128,0.2045,-0.4268,-1.221,2.1377
2025-05-24T06:13:57.895Z,0.1309,1.2415,0.2903,2.0699,-3.2572,0.2097,-0.4141,-1.2324,2.2484
2025-05-24T06:13:57.904Z,0.151,1.2798,0.2428,2.3334,-3.6968,0.4182,-0.3812,-1.2131,2.3777
2025-05-24T06:13:57.916Z,0.172,1.3169,0.2234,2.4454,-4.6511,0.9867,-0.3838,-1.2028,2.5107
2025-05-24T06:13:57.925Z,0.1437,1.3395,0.2443,2.4454,-4.6511,0.9867,-0.3889,-1.2315,2.5916
2025-05-24T06:13:57.934Z,0.1096,1.3612,0.2869,3.0239,-4.9729,0.7291,-0.373,-1.3083,2.6455
2025-05-24T06:13:57.946Z,0.1046,1.39,0.2991,3.8883,-5.7492,0.1691,-0.3847,-1.4398,2.6933
2025-05-24T06:13:57.955Z,0.0645,1.4093,0.3013,4.6138,-6.075,0.0836,-0.4029,-1.6454,2.7035
2025-05-24T06:13:57.966Z,-0.0229,1.4326,0.3075,5.7539,-6.4667,-0.0783,-0.3809,-1.9038,2.6796
2025-05-24T06:13:57.975Z,-0.1283,1.4799,0.3578,7.0724,-7.1352,-0.7586,-0.3623,-2.2245,2.5884
2025-05-24T06:13:57.984Z,-0.2404,1.5796,0.4455,7.0724,-7.1352,-0.7586,-0.4023,-2.604,2.3924
2025-05-24T06:13:57.995Z,-0.3135,1.7229,0.4728,9.2847,-9.8864,-2.0114,-0.5199,-2.9918,2.1686
2025-05-24T06:13:58.005Z,-0.3512,1.8456,0.4052,9.8809,-11.1715,-1.3908,-0.5879,-3.0625,1.9693
2025-05-24T06:13:58.016Z,-0.4347,1.9326,0.3511,10.8904,-12.1119,-1.125,-0.55,-2.2868,1.74
2025-05-24T06:13:58.025Z,-0.4554,1.9918,0.3864,11.0032,-12.7825,-1.3748,-0.511,-0.8521,1.6409
2025-05-24T06:13:58.035Z,-0.3165,2.0066,0.3303,9.7381,-13.0035,-0.8098,-0.6096,0.3543,1.9423
2025-05-24T06:13:58.045Z,-0.3161,1.9584,0.4089,10.2463,-12.6331,-1.5962,-0.5596,0.7586,2.3514
2025-05-24T06:13:58.055Z,-0.5431,1.8462,0.5442,12.5395,-11.672,-3.0834,-0.248,0.0486,2.5237
2025-05-24T06:13:58.065Z,-0.368,1.7675,0.609,10.3803,-11.26,-3.3395,-0.201,-0.7144,3.0769
2025-05-24T06:13:58.075Z,-0.0432,1.7367,0.586,7.8722,-11.1853,-3.4055,-0.5103,-0.202,3.8638
2025-05-24T06:13:58.085Z,-0.0956,1.5741,0.6925,8.789,-9.6666,-4.204,-0.624,0.6153,4.1198
2025-05-24T06:13:58.095Z,-0.1763,1.2356,0.6245,9.8973,-6.5992,-3.153,-0.4464,0.9455,4.0421
2025-05-24T06:13:58.105Z,-0.5,0.9315,0.3063,13.3652,-3.8967,0.1137,-0.0595,0.4295,3.263
2025-05-24T06:13:58.116Z,-0.5978,0.603,0.0209,13.8471,-0.731,2.8264,0.1719,-0.0615,2.1362
2025-05-24T06:13:58.125Z,-0.4439,0.2419,-0.2241,12.448,2.7185,5.047,0.2667,0.2078,0.981
2025-05-24T06:13:58.139Z,-0.4372,-0.0375,-0.221,12.4345,5.3646,4.83,0.2481,0.6633,-0.1992
2025-05-24T06:13:58.144Z,-0.3586,-0.171,-0.1458,11.3379,6.5546,4.1162,0.3356,0.7554,-1.2172
2025-05-24T06:13:58.154Z,-0.1257,-0.0849,-0.0044,8.8946,5.635,2.6071,0.5684,0.489,-1.9185
2025-05-24T06:13:58.165Z,0.0303,0.1436,0.1628,7.4509,3.5531,1.0551,0.8033,0.2396,-2.4243
2025-05-24T06:13:58.175Z,-0.0094,0.3646,0.2105,7.8795,1.7369,0.6946,0.907,0.3423,-2.9259
2025-05-24T06:13:58.184Z,-0.1471,0.4833,0.1853,8.9725,1.0125,0.9957,0.9604,0.7171,-3.4226
2025-05-24T06:13:58.195Z,-0.197,0.4893,0.1383,9.0628,1.3539,1.4777,1.0603,1.1909,-3.8026
2025-05-24T06:13:58.205Z,-0.181,0.4627,0.118,8.589,1.9164,1.6595,1.1967,1.5596,-4.0563
2025-05-24T06:13:58.216Z,-0.1676,0.4757,0.132,8.1473,2.0384,1.5126,1.3191,1.7616,-4.2239
2025-05-24T06:13:58.225Z,-0.1498,0.5426,0.175,7.5741,1.6469,1.113,1.4154,1.8499,-4.3716
2025-05-24T06:13:58.234Z,-0.0884,0.6352,0.2128,6.5322,1.0596,0.7234,1.5048,1.8766,-4.561
2025-05-24T06:13:58.245Z,0.0045,0.7284,0.2797,5.1533,0.4525,0.0175,1.6076,1.8499,-4.8106
2025-05-24T06:13:58.255Z,0.1207,0.8294,0.3322,3.5534,-0.2281,-0.4926,1.6801,1.7598,-5.0985
2025-05-24T06:13:58.265Z,0.2247,0.9351,0.3636,2.0995,-0.9724,-0.8739,1.7138,1.6264,-5.4179
2025-05-24T06:13:58.275Z,0.2728,1.0504,0.3954,1.1678,-1.8316,-1.269,1.7074,1.5178,-5.72
2025-05-24T06:13:58.284Z,0.2977,1.159,0.4332,0.3499,-2.617,-1.7546,1.7022,1.3898,-5.9664
2025-05-24T06:13:58.295Z,0.3384,1.2565,0.483,-0.6322,-3.3497,-2.3745,1.7697,1.226,-6.1236
2025-05-24T06:13:58.305Z,0.3546,1.3648,0.5237,-1.3473,-4.2327,-2.9029,1.861,1.0638,-6.2361
2025-05-24T06:13:58.315Z,0.3764,1.4939,0.5643,-2.2135,-5.3688,-3.4675,1.8897,0.9155,-6.293
2025-05-24T06:13:58.325Z,0.4253,1.6295,0.6018,-3.3368,-6.5638,-4.0081,1.8719,0.816,-6.289
2025-05-24T06:13:58.334Z,0.4935,1.7475,0.6615,-4.6145,-7.6364,-4.7952,1.8273,0.7389,-6.2201
2025-05-24T06:13:58.345Z,0.5566,1.8618,0.7089,-5.8133,-8.7233,-5.3612,1.7469,0.6186,-6.1213
2025-05-24T06:13:58.355Z,0.6279,1.9701,0.7002,-7.1477,-9.7807,-5.3735,1.6214,0.3451,-6.0052
2025-05-24T06:13:58.365Z,0.747,2.0376,0.6715,-8.9021,-10.3954,-5.2167,1.447,-0.0049,-5.827
2025-05-24T06:13:58.375Z,0.8788,2.0062,0.6328,-10.7387,-10.0278,-4.9568,1.2534,-0.0428,-5.5388
2025-05-24T06:13:58.384Z,1.0515,1.8944,0.6362,-12.94,-9.0013,-5.1982,1.0663,0.128,-5.0508
2025-05-24T06:13:58.395Z,1.1863,1.7773,0.7053,-14.5279,-7.9419,-5.9413,0.7858,0.1611,-4.4534
2025-05-24T06:13:58.405Z,1.2139,1.6373,0.6984,-15.0713,-6.618,-5.7232,0.4841,-0.0049,-3.8973
2025-05-24T06:13:58.414Z,1.1924,1.4445,0.5762,-15.0878,-4.8013,-4.5208,0.2989,-0.1455,-3.4552
2025-05-24T06:13:58.425Z,1.1341,1.2538,0.4542,-14.8111,-3.0526,-3.3247,0.1392,-0.1299,-3.1409
2025-05-24T06:13:58.434Z,1.1358,1.0694,0.343,-15.2239,-1.3683,-2.3089,-0.0228,0.1697,-2.8321
2025-05-24T06:13:58.445Z,1.2789,0.9182,0.3247,-16.9911,-0.0456,-2.2672,-0.1564,0.4054,-2.3003
2025-05-24T06:13:58.455Z,1.5407,0.8371,0.3634,-19.696,0.6127,-2.5829,-0.2857,0.3618,-1.3411
2025-05-24T06:13:58.464Z,1.6871,0.7964,0.3229,-20.7297,1.0332,-2.0258,-0.4449,0.2054,-0.1148
2025-05-24T06:13:58.475Z,1.4359,0.7566,0.1895,-17.7259,1.418,-0.6334,-0.588,0.3358,0.9096
2025-05-24T06:13:58.484Z,1.0394,0.7731,0.1109,-13.8968,1.2333,-0.0551,-0.6799,0.9814,1.6134
2025-05-24T06:13:58.495Z,0.9486,0.8422,0.2028,-13.2709,0.6058,-1.065,-0.6713,1.6335,2.223
2025-05-24T06:13:58.505Z,1.0966,0.9156,0.2393,-14.4251,0.0164,-1.2411,-0.61,1.8791,2.7752
2025-05-24T06:13:58.514Z,0.9341,0.9594,0.1632,-12.0539,-0.2982,-0.499,-0.6886,2.0276,2.8774
2025-05-24T06:13:58.525Z,0.6302,1.003,0.1902,-9.2003,-0.6237,-0.9869,-0.8524,2.3432,2.7853
2025-05-24T06:13:58.534Z,0.5588,0.981,0.2789,-8.0178,-0.2905,-1.6252,-0.7713,2.0495,2.7374
2025-05-24T06:13:58.544Z,-0.1974,1.0556,0.1164,0.6848,-1.2582,0.1616,-0.3711,0.7561,1.9069
2025-05-24T06:13:58.554Z,-1.5155,1.269,0.1095,13.4497,-3.3079,-0.3231,-0.4099,-0.1113,-0.0886
2025-05-24T06:13:58.564Z,-2.1232,1.3447,0.3849,17.2025,-4.0075,-2.5776,-0.9049,-0.3176,-2.4134
2025-05-24T06:13:58.574Z,-0.6193,1.4915,-0.0012,-0.5908,-5.9351,2.2387,-0.9156,0.6865,-2.5099
2025-05-24T06:13:58.584Z,2.1875,2.0672,-0.5561,-26.4904,-11.9048,6.4386,-0.5676,3.0353,0.6577
2025-05-24T06:13:58.595Z,1.5948,2.5678,0.2934,-15.615,-16.1722,-3.2556,-0.7489,0.9867,2.6295
2025-05-24T06:13:58.605Z,-0.3226,2.5533,1.1045,1.1782,-15.3573,-9.0078,-1.3377,-2.0675,2.6177
2025-05-24T06:13:58.614Z,0.1063,2.1031,0.2484,-4.6944,-10.6199,0.3909,-1.3367,-0.7238,2.8468
2025-05-24T06:13:58.625Z,0.5955,1.6472,-0.2888,-7.5807,-6.2244,4.3062,-1.0995,1.3356,3.1541
2025-05-24T06:13:58.634Z,0.1539,1.2282,0.1244,-3.1011,-2.0566,-0.0079,-1.2055,0.7331,2.9086
2025-05-24T06:13:58.645Z,0.2116,0.8289,0.3867,-3.9604,1.7805,-1.9824,-1.398,0.0433,2.7485
2025-05-24T06:13:58.655Z,0.2775,0.5636,0.4775,-3.8699,4.1858,-2.8998,-1.2812,0.0339,2.6971
2025-05-24T06:13:58.664Z,0.0318,0.4647,0.636,-1.1931,4.976,-4.1854,-0.9182,-0.0932,2.4097
2025-05-24T06:13:58.674Z,-0.0496,0.5196,0.5126,-0.5955,4.2468,-2.5941,-0.5538,0.0221,1.8915
2025-05-24T06:13:58.684Z,0.0878,0.7286,0.3496,-1.9417,2.0581,-1.2676,-0.428,0.1795,1.33
2025-05-24T06:13:58.695Z,0.2654,0.9893,0.4404,-3.6169,-0.4615,-2.2252,-0.4885,-0.1652,0.8862
2025-05-24T06:13:58.704Z,0.4264,1.1506,0.4546,-4.9751,-1.8369,-2.0987,-0.4657,-0.717,0.6137
2025-05-24T06:13:58.714Z,0.362,1.1246,0.3596,-3.9889,-1.3832,-1.0708,-0.3999,-1.0671,0.2738
2025-05-24T06:13:58.725Z,0.1634,1.0001,0.2424,-2.0426,-0.1972,0.1143,-0.3989,-1.1573,-0.0488
2025-05-24T06:13:58.734Z,0.0201,0.955,0.1729,-0.7094,0.1132,0.7218,-0.4299,-1.1775,-0.1886
2025-05-24T06:13:58.745Z,-0.087,0.9714,0.1645,0.3231,-0.0777,0.867,-0.4146,-1.0948,-0.2136
2025-05-24T06:13:58.755Z,-0.172,0.987,0.1284,1.1113,-0.2285,1.2595,-0.3794,-0.7733,-0.2174
2025-05-24T06:13:58.764Z,-0.218,0.9858,0.1403,1.5052,-0.1933,1.0914,-0.3667,-0.3241,-0.2082
2025-05-24T06:13:58.775Z,-0.1955,0.965,0.1955,1.1581,0.0147,0.5517,-0.3182,-0.0092,-0.1214
2025-05-24T06:13:58.784Z,-0.1232,0.9447,0.2742,0.4914,0.1887,-0.2269,-0.2633,-0.0658,0.0437
2025-05-24T06:13:58.795Z,-0.0861,0.9549,0.3591,0.1971,0.0303,-0.9838,-0.3057,-0.9702,0.3731
2025-05-24T06:13:58.805Z,-0.0707,0.9857,0.3885,0.1714,-0.2515,-1.169,-0.3057,-0.9702,0.3731
2025-05-24T06:13:58.814Z,-0.1392,0.9513,0.3853,0.9808,0.1879,-1.08,-0.3072,-1.215,0.2787
2025-05-24T06:13:58.825Z,-0.203,0.8841,0.3331,1.5895,0.8039,-0.4613,-0.3016,-1.1825,0.2043
2025-05-24T06:13:58.834Z,-0.2657,0.8554,0.2457,2.3048,1.0241,0.4232,-0.3295,-0.9935,0.1953
2025-05-24T06:13:58.844Z,-0.3401,0.8665,0.2132,2.9924,0.8638,0.6572,-0.3373,-0.7437,0.1803
2025-05-24T06:13:58.855Z,-0.2819,0.9255,0.2828,2.3234,0.2189,-0.0282,-0.3622,-0.7526,0.2832
2025-05-24T06:13:58.864Z,-0.2415,1.0072,0.2849,2.1467,-0.5706,0.1029,-0.3591,-0.4948,0.444
2025-05-24T06:13:58.876Z,-0.2611,1.0528,0.2642,2.3336,-0.9848,0.2278,-0.3947,-0.4693,0.9011
2025-05-24T06:13:58.884Z,-0.2078,1.0644,0.3356,1.853,-1.0806,-0.4158,-0.3947,-0.4693,0.9011
2025-05-24T06:13:58.896Z,-0.0871,1.0719,0.3228,0.7681,-1.1435,-0.1457,-0.3654,-0.5187,1.3413
2025-05-24T06:13:58.904Z,-0.0197,1.0468,0.2624,0.3382,-0.8823,0.4672,-0.3654,-0.5187,1.3413
2025-05-24T06:13:58.914Z,0.0237,1.0154,0.2421,0.0239,-0.6054,0.6362,-0.4226,-0.4817,1.2876
2025-05-24T06:13:58.925Z,0.073,0.9929,0.2601,-0.3039,-0.4147,0.4835,-0.4533,-0.6267,1.2304
2025-05-24T06:13:58.935Z,0.0823,0.9865,0.2844,-0.1822,-0.4015,0.2723,-0.4815,-0.7039,1.2331
2025-05-24T06:13:58.946Z,0.0299,1.0076,0.2965,0.5015,-0.6498,0.2426,-0.5173,-0.7345,1.2689
2025-05-24T06:13:58.955Z,-0.0175,1.0269,0.2999,1.0907,-0.8397,0.2024,-0.5123,-0.7415,1.3331
2025-05-24T06:13:58.965Z,-0.0571,1.027,0.3344,1.609,-0.8639,-0.1004,-0.5172,-0.7467,1.4291
2025-05-24T06:13:58.975Z,-0.0625,1.0253,0.3359,1.7384,-0.8812,-0.0126,-0.5229,-0.7425,1.5401
2025-05-24T06:13:58.985Z,-0.0094,1.0285,0.3102,1.3526,-0.9542,0.2761,-0.5206,-0.7662,1.6185
2025-05-24T06:13:58.995Z,0.0778,1.0612,0.3326,1.0523,-1.1056,0.3187,-0.522,-0.8474,1.662
2025-05-24T06:13:59.005Z,0.0778,1.0612,0.3326,0.859,-1.3852,0.0692,-0.5081,-0.9375,1.7043
2025-05-24T06:13:59.015Z,0.1353,1.0986,0.3459,0.474,-1.8138,-0.0087,-0.4821,-1.0594,1.7537
2025-05-24T06:13:59.025Z,0.181,1.1392,0.3473,0.2628,-2.2597,0.0088,-0.4438,-1.2261,1.7872
2025-05-24T06:13:59.034Z,0.1894,1.1629,0.3465,0.4325,-2.5114,0.0217,-0.4438,-1.2261,1.7872
2025-05-24T06:13:59.045Z,0.1315,1.1759,0.334,0.8734,-2.661,0.0089,-0.3342,-1.5289,1.8765
2025-05-24T06:13:59.055Z,0.0903,1.1676,0.3132,1.459,-2.7389,0.162,-0.3145,-1.5552,1.9585
2025-05-24T06:13:59.065Z,0.0903,1.1676,0.3132,2.0796,-2.7244,0.315,-0.2781,-1.4712,2.0395
2025-05-24T06:13:59.075Z,0.0656,1.1752,0.3044,2.5133,-2.9053,0.4209,-0.2981,-1.2936,2.1268
2025-05-24T06:13:59.084Z,0.0819,1.2126,0.2602,2.5287,-3.3748,0.8708,-0.3168,-1.1558,2.2272
2025-05-24T06:13:59.095Z,0.0992,1.2699,0.2579,2.53,-3.8009,1.0887,-0.3014,-1.1538,2.3126
2025-05-24T06:13:59.105Z,0.0883,1.285,0.3043,2.8928,-4.0786,0.7272,-0.2705,-1.2772,2.3767
2025-05-24T06:13:59.115Z,0.0883,1.285,0.3043,3.2073,-4.3322,0.265,-0.2478,-1.4856,2.4322
2025-05-24T06:13:59.125Z,0.0708,1.3055,0.3127,3.393,-4.5834,0.1351,-0.2575,-1.7605,2.4585
2025-05-24T06:13:59.134Z,0.0708,1.3055,0.3127,3.9534,-4.7394,0.1159,-0.2648,-2.0507,2.4634
2025-05-24T06:13:59.145Z,-0.1072,1.3349,0.3219,4.9587,-4.8964,-0.0501,-0.2296,-2.3211,2.4557
2025-05-24T06:13:59.155Z,-0.2148,1.4072,0.3429,6.3034,-5.3435,-0.166,-0.1675,-2.5975,2.3998
2025-05-24T06:13:59.164Z,-0.2148,1.4072,0.3429,7.5938,-6.2451,-0.5444,-0.1675,-2.5975,2.3998
2025-05-24T06:13:59.175Z,-0.3363,1.7231,0.354,8.616,-7.8389,-1.0701,-0.2619,-3.1726,2.1979
2025-05-24T06:13:59.186Z,-0.3363,1.7231,0.354,9.1974,-9.6754,-0.784,-0.2619,-3.1726,2.1979
2025-05-24T06:13:59.195Z,-0.4747,1.9642,0.1223,9.8313,-11.1551,0.4962,-0.2969,-1.9157,2.1088
2025-05-24T06:13:59.205Z,-0.5985,2.0289,0.1762,11.0955,-12.2125,1.1488,-0.4515,-0.1824,2.0551
2025-05-24T06:13:59.214Z,-0.573,2.0156,0.2362,12.3905,-12.9268,0.5818,-0.4515,-0.1824,2.0551
2025-05-24T06:13:59.225Z,-0.4007,1.9221,0.396,11.9797,-12.8418,0.0739,-0.647,1.5085,2.6837
2025-05-24T06:13:59.234Z,-0.4664,1.8277,0.5947,10.5614,-12.0777,-1.4509,-0.2908,0.9497,2.9662
2025-05-24T06:13:59.245Z,-0.4178,1.7869,0.6998,11.6152,-11.4055,-3.419,-0.0531,0.0641,3.352
2025-05-24T06:13:59.254Z,-0.1035,1.7366,0.4028,10.8525,-11.3187,-3.9035,-0.1181,-0.0239,3.9456
2025-05-24T06:13:59.265Z,-0.1035,1.7366,0.4028,8.1414,-11.0021,-1.0587,-0.4745,0.7204,4.1849
2025-05-24T06:13:59.275Z,-0.0765,1.3288,0.65,7.949,-9.7939,-3.4147,-0.4388,1.3421,4.189
2025-05-24T06:13:59.285Z,-0.2872,1.028,0.4068,8.6288,-7.3885,-3.1735,-0.0584,1.0012,3.6953
2025-05-24T06:13:59.295Z,-0.476,0.7066,0.235,11.0492,-4.7435,-0.7244,0.2647,0.0583,2.7489
2025-05-24T06:13:59.304Z,-0.4573,0.3105,-0.0723,12.7381,-1.6591,0.9368,0.4921,-0.0133,1.598
2025-05-24T06:13:59.315Z,-0.4573,0.3105,-0.0723,12.4986,2.1243,4.1196,0.5254,0.5881,0.3404
2025-05-24T06:13:59.325Z,-0.4397,-0.1776,-0.1357,12.5849,5.0907,5.4619,0.5395,0.8721,-0.8489
2025-05-24T06:13:59.334Z,-0.1965,-0.1438,-0.0307,12.0931,6.6555,4.2266,0.749,0.6663,-1.6853
2025-05-24T06:13:59.344Z,0.0635,0.0623,0.107,9.4197,6.2235,3.1965,1.0501,0.2384,-2.1801
2025-05-24T06:13:59.355Z,0.1092,0.2957,0.2109,6.9314,4.3078,1.7842,1.2646,-0.0059,-2.6108
2025-05-24T06:13:59.365Z,0.1092,0.2957,0.2109,6.6269,2.3112,0.8013,1.355,0.1433,-3.0925
2025-05-24T06:13:59.375Z,-0.1223,0.4879,0.2039,7.7028,1.2781,0.6885,1.4492,0.6036,-3.547
2025-05-24T06:13:59.384Z,-0.152,0.4807,0.1835,8.4492,1.2556,0.8758,1.5952,1.1314,-3.9026
2025-05-24T06:13:59.395Z,-0.1621,0.4804,0.1877,8.4006,1.6839,1.0194,1.7399,1.5023,-4.1666
2025-05-24T06:13:59.404Z,-0.1518,0.524,0.2176,8.1855,1.9737,0.9638,1.8224,1.6751,-4.3485
2025-05-24T06:13:59.415Z,-0.1518,0.524,0.2176,7.6682,1.8016,0.5939,1.8721,1.7152,-4.4609
2025-05-24T06:13:59.425Z,-0.0212,0.7305,0.328,6.6648,1.1626,0.0442,1.9129,1.7044,-4.5929
2025-05-24T06:13:59.434Z,0.0627,0.8268,0.3973,5.6001,0.387,-0.5861,1.9409,1.6732,-4.8081
2025-05-24T06:13:59.445Z,0.177,0.9327,0.4661,4.2945,-0.2507,-1.3371,1.949,1.6399,-5.0734
2025-05-24T06:13:59.454Z,0.2643,1.063,0.5472,2.7194,-1.0157,-2.0924,1.9375,1.5569,-5.3321
2025-05-24T06:13:59.464Z,0.2643,1.063,0.5472,1.4267,-2.0401,-3.0044,1.9612,1.4093,-5.5288
2025-05-24T06:13:59.475Z,0.3868,1.3289,0.658,0.3168,-3.1191,-3.7761,2.0161,1.2579,-5.6526
2025-05-24T06:13:59.484Z,0.457,1.4369,0.685,-0.8197,-4.1282,-4.2852,2.0311,1.2178,-5.6888
2025-05-24T06:13:59.495Z,0.5371,1.505,0.7506,-2.0766,-4.9411,-4.6902,1.9281,1.1961,-5.642
2025-05-24T06:13:59.504Z,0.596,1.5388,0.8654,-3.3961,-5.4038,-5.5903,1.7886,0.9701,-5.5416
2025-05-24T06:13:59.514Z,0.596,1.5388,0.8654,-4.4869,-5.5894,-6.8478,1.7055,0.5575,-5.4174
2025-05-24T06:13:59.525Z,0.6976,1.6195,0.8465,-5.51,-5.8595,-7.3934,1.6154,0.1756,-5.3161
2025-05-24T06:13:59.534Z,0.7469,1.6253,0.6582,-6.4993,-6.2293,-6.6635,1.456,0.0635,-5.2642
2025-05-24T06:13:59.545Z,0.8772,1.5954,0.5532,-7.5472,-6.1999,-4.9164,1.2538,0.0707,-5.1133
2025-05-24T06:13:59.554Z,1.0614,1.5579,0.585,-9.4438,-5.8899,-4.242,1.0797,-0.0395,-4.8009
2025-05-24T06:13:59.564Z,1.1071,1.5553,0.5457,-11.6382,-5.559,-4.6505,0.9567,-0.1538,-4.5271
2025-05-24T06:13:59.574Z,0.9839,1.5709,0.4656,-12.2747,-5.6278,-4.2542,0.8723,-0.0399,-4.4709
2025-05-24T06:13:59.584Z,0.8349,1.5448,0.3923,-11.3779,-5.842,-3.5409,0.7843,0.4764,-4.5747
2025-05-24T06:13:59.595Z,0.7713,1.4401,0.3658,-10.4295,-5.5731,-2.9442,0.6706,1.079,-4.5446
2025-05-24T06:13:59.604Z,0.8217,1.3354,0.4001,-10.3545,-4.6167,-2.8525,0.5084,1.3213,-4.0313
2025-05-24T06:13:59.614Z,0.9501,1.256,0.4328,-11.3567,-3.7252,-3.3158,0.3175,1.3219,-3.2324
2025-05-24T06:13:59.625Z,1.0856,1.1674,0.4422,-12.9158,-3.0523,-3.6677,0.1548,1.1504,-2.4773
2025-05-24T06:13:59.634Z,1.3003,1.064,0.418,-14.5253,-2.2534,-3.7849,0.0201,0.9793,-1.7986
2025-05-24T06:13:59.645Z,1.5385,0.9547,0.399,-16.8741,-1.2752,-3.5458,-0.1335,0.7845,-1.0055
2025-05-24T06:13:59.654Z,1.7166,0.8319,0.4205,-19.2256,-0.238,-3.4189,-0.3383,0.3657,-0.0228
2025-05-24T06:13:59.664Z,1.7148,0.6819,0.3955,-20.8531,1.0201,-3.6317,-0.5401,0.1516,0.9388
2025-05-24T06:13:59.675Z,1.3504,0.5834,0.2582,-20.3419,2.5179,-3.166,-0.6073,0.5431,1.479
2025-05-24T06:13:59.684Z,0.9729,0.6524,0.3028,-16.2956,3.3969,-1.8527,-0.641,1.0118,1.8146
2025-05-24T06:13:59.695Z,0.9442,0.8551,0.4209,-12.8104,2.5366,-2.5275,-0.7261,1.211,2.3144
2025-05-24T06:13:59.704Z,0.9483,1.0222,0.3819,-12.5685,0.6048,-3.5289,-0.8044,1.1361,2.8089
2025-05-24T06:13:59.714Z,0.6319,1.0995,0.236,-12.1593,-0.8485,-2.9517,-0.7361,0.7045,2.7906
2025-05-24T06:13:59.725Z,-0.2681,1.196,-0.071,-8.1829,-1.4719,-1.246,-0.4445,-0.0521,1.8649
2025-05-24T06:13:59.734Z,-1.4924,1.324,-0.0044,1.4701,-2.5026,1.728,-0.5482,-0.3616,-0.0977
2025-05-24T06:13:59.745Z,-1.9007,1.3211,0.335,13.1993,-3.6532,0.3907,-0.9783,-0.0282,-2.1781
2025-05-24T06:13:59.754Z,-0.5573,1.3732,0.0225,15.0257,-3.6109,-2.3691,-1.0019,1.2094,-2.3258
2025-05-24T06:13:59.764Z,1.6671,1.7266,-0.2976,-0.2639,-4.456,1.4199,-0.8015,3.061,0.2482
2025-05-24T06:13:59.775Z,1.5925,2.1852,0.1957,-21.2089,-8.2503,3.7104,-0.7661,1.5817,2.3425
2025-05-24T06:13:59.784Z,-0.069,2.4233,0.8684,-16.2998,-12.5336,-1.9409,-1.1622,-1.4142,2.6253
2025-05-24T06:13:59.797Z,-0.0102,2.1811,0.3455,-3.1887,-11.2916,-1.0646,-1.2827,-0.8364,2.7674
2025-05-24T06:13:59.804Z,0.5459,1.6437,-0.1449,-3.1887,-11.2916,-1.0646,-1.2534,1.0017,3.0477
2025-05-24T06:13:59.814Z,0.3099,1.2512,0.1807,-7.3174,-6.0522,2.6834,-1.2798,0.5715,2.9712
2025-05-24T06:13:59.826Z,0.3236,0.958,0.3666,-4.7783,0.48,-1.9838,-1.3048,-0.3474,2.8807
2025-05-24T06:13:59.834Z,0.3107,0.7372,0.3944,-4.7783,0.48,-1.9838,-1.2169,-0.4902,2.7335
2025-05-24T06:13:59.847Z,0.0748,0.6175,0.49,-1.4764,3.5965,-3.0232,-1.0188,-0.3069,2.3246
2025-05-24T06:13:59.855Z,-0.0309,0.6084,0.4708,-0.5468,3.5628,-2.5936,-0.7917,-0.1708,1.7319
2025-05-24T06:13:59.864Z,0.0414,0.6933,0.3939,-0.5468,3.5628,-2.5936,-0.639,-0.1015,1.1463
2025-05-24T06:13:59.875Z,0.147,0.8716,0.4546,-2.2433,0.7952,-2.5382,-0.5706,-0.2651,0.8096
2025-05-24T06:13:59.884Z,0.2593,1.0278,0.4597,-2.2433,0.7952,-2.5382,-0.4451,-0.5539,0.6995
2025-05-24T06:13:59.896Z,0.2158,1.0966,0.343,-2.4435,-1.2209,-1.1145,-0.3494,-0.6552,0.535
2025-05-24T06:13:59.905Z,0.0761,1.0789,0.224,-1.1332,-0.9531,0.0651,-0.3735,-0.5921,0.3159
2025-05-24T06:13:59.915Z,0.0285,1.0213,0.1609,-0.6714,-0.4069,0.6074,-0.4079,-0.5956,0.2059
2025-05-24T06:13:59.925Z,-0.0395,0.9875,0.1665,0.0593,-0.1172,0.5853,-0.3798,-0.6347,0.1704
2025-05-24T06:13:59.935Z,-0.0844,0.9849,0.1406,0.4546,-0.1434,0.9188,-0.3533,-0.4605,0.2057
2025-05-24T06:13:59.946Z,-0.0961,0.9983,0.1306,0.6096,-0.2645,0.9632,-0.3449,-0.175,0.2742
2025-05-24T06:13:59.955Z,-0.1178,0.9991,0.1874,0.8385,-0.2663,0.3802,-0.3196,-0.0269,0.321
2025-05-24T06:13:59.965Z,-0.0972,0.9857,0.2472,0.5981,-0.1179,-0.12,-0.3183,-0.0648,0.3942
2025-05-24T06:13:59.975Z,-0.0556,0.9625,0.2804,0.297,0.1086,-0.4281,-0.3336,-0.27,0.4807
2025-05-24T06:13:59.985Z,-0.0466,0.9252,0.3297,0.26,0.4875,-0.8726,-0.3309,-0.5309,0.4693
2025-05-24T06:13:59.996Z,-0.0176,0.8924,0.3314,0.0189,0.7582,-0.7846,-0.3213,-0.6703,0.3892
2025-05-24T06:14:00.005Z,-0.0149,0.8959,0.3119,0.092,0.6848,-0.5609,-0.3329,-0.7856,0.3135
2025-05-24T06:14:00.014Z,-0.0504,0.9134,0.2896,0.5324,0.504,-0.2957,-0.3471,-0.8687,0.2889
2025-05-24T06:14:00.024Z,-0.1157,0.9276,0.2577,1.2379,0.3673,0.0387,-0.356,-0.791,0.2916
2025-05-24T06:14:00.035Z,-0.1694,0.9393,0.2307,1.7484,0.2307,0.3317,-0.3559,-0.5877,0.311
2025-05-24T06:14:00.046Z,-0.1444,0.9623,0.2494,1.4476,-0.0092,0.0791,-0.3748,-0.507,0.4037
2025-05-24T06:14:00.055Z,-0.0912,0.9877,0.2938,1.054,-0.2655,-0.2451,-0.395,-0.5386,0.5618
2025-05-24T06:14:00.064Z,-0.1076,1.008,0.2888,1.398,-0.4699,-0.1632,-0.4096,-0.6111,0.6995
2025-05-24T06:14:00.075Z,-0.1747,1.0108,0.2972,2.1152,-0.4874,-0.1922,-0.4217,-0.5798,0.77
2025-05-24T06:14:00.084Z,-0.149,1.0193,0.265,1.7982,-0.6179,0.1919,-0.4129,-0.4892,0.8854
2025-05-24T06:14:00.096Z,-0.0376,1.0432,0.246,0.7919,-0.8612,0.3879,-0.4458,-0.4914,1.0573
2025-05-24T06:14:00.105Z,0.0662,1.0282,0.2296,-0.0137,-0.6753,0.5921,-0.4809,-0.4883,1.1536
2025-05-24T06:14:00.114Z,0.0601,0.9906,0.2364,0.2669,-0.3326,0.5292,-0.4938,-0.564,1.1268
2025-05-24T06:14:00.125Z,0.0542,0.9789,0.2527,0.3671,-0.3019,0.4364,-0.5085,-0.6268,1.1296
2025-05-24T06:14:00.134Z,0.0558,0.9997,0.2618,0.5916,-0.5434,0.3374,-0.5171,-0.6517,1.2066
2025-05-24T06:14:00.146Z,-0.0202,1.0191,0.319,1.4629,-0.7466,-0.2113,-0.5086,-0.7269,1.2534
2025-05-24T06:14:00.154Z,-0.0194,1.0385,0.3548,1.4916,-0.9808,-0.4591,-0.4885,-0.743,1.3157
2025-05-24T06:14:00.164Z,0.0115,1.0572,0.3562,1.3797,-1.1795,-0.451,-0.4618,-0.7484,1.3835
2025-05-24T06:14:00.175Z,0.0333,1.0624,0.3682,1.2764,-1.2584,-0.5243,-0.4514,-0.8502,1.4452
2025-05-24T06:14:00.184Z,0.0845,1.0623,0.3511,0.951,-1.3019,-0.3082,-0.4472,-0.9429,1.5179
2025-05-24T06:14:00.202Z,0.1139,1.063,0.3352,0.8681,-1.3544,-0.169,-0.417,-1.0072,1.5915
2025-05-24T06:14:00.204Z,0.1139,1.063,0.3352,1.0905,-1.5481,-0.2896,-0.3934,-1.0695,1.6408
2025-05-24T06:14:00.214Z,0.1217,1.1049,0.3468,1.1309,-1.8968,-0.2309,-0.415,-1.079,1.6788
2025-05-24T06:14:00.225Z,0.185,1.1371,0.3194,0.6834,-2.269,0.0447,-0.4049,-1.0526,1.7499
2025-05-24T06:14:00.234Z,0.1931,1.1736,0.3323,0.9208,-2.6919,-0.1486,-0.3873,-1.1013,1.8103
2025-05-24T06:14:00.245Z,0.1462,1.2029,0.3613,1.5515,-3.0274,-0.3828,-0.4046,-1.1991,1.8461
2025-05-24T06:14:00.255Z,0.1532,1.2137,0.3229,1.6361,-3.1801,0.0678,-0.405,-1.2126,1.9182
2025-05-24T06:14:00.264Z,0.1661,1.2113,0.2669,1.7531,-3.2182,0.5886,-0.3772,-1.1634,2.0112
2025-05-24T06:14:00.275Z,0.162,1.2112,0.2369,2.0042,-3.3202,0.8448,-0.3317,-1.0983,2.1072
2025-05-24T06:14:00.284Z,0.1748,1.2392,0.225,2.0677,-3.7441,0.9175,-0.2937,-1.0432,2.2018
2025-05-24T06:14:00.295Z,0.1933,1.2968,0.2418,2.1427,-4.4129,0.7059,-0.2923,-1.0474,2.2758
2025-05-24T06:14:00.305Z,0.1798,1.3372,0.2651,2.5342,-4.8588,0.4521,-0.2842,-1.1346,2.3115
2025-05-24T06:14:00.314Z,0.1535,1.3384,0.2836,3.0382,-4.9476,0.2417,-0.2545,-1.2873,2.3303
2025-05-24T06:14:00.324Z,0.1104,1.3263,0.3005,3.7219,-4.9372,0.0187,-0.2331,-1.4886,2.3489
2025-05-24T06:14:00.334Z,0.0331,1.316,0.3101,4.7711,-4.9792,-0.1316,-0.2259,-1.7009,2.3671
2025-05-24T06:14:00.345Z,-0.0775,1.3295,0.342,6.1209,-5.2741,-0.5754,-0.2298,-1.9156,2.362
2025-05-24T06:14:00.355Z,-0.1814,1.3753,0.3964,7.3285,-5.9088,-1.2197,-0.2463,-2.1463,2.2872
2025-05-24T06:14:00.364Z,-0.2293,1.479,0.4477,7.9491,-7.1026,-1.8123,-0.3196,-2.4644,2.1879
2025-05-24T06:14:00.375Z,-0.2341,1.5931,0.4465,8.2286,-8.3192,-1.8516,-0.434,-2.846,2.1457
2025-05-24T06:14:00.384Z,-0.2781,1.6727,0.4011,8.9764,-9.2248,-1.4884,-0.5154,-2.9808,2.1184
2025-05-24T06:14:00.396Z,-0.3966,1.7675,0.3282,10.3632,-10.3248,-0.9202,-0.5009,-2.3058,2.0236
2025-05-24T06:14:00.405Z,-0.447,1.8723,0.3535,10.7915,-11.4809,-1.2027,-0.6141,-0.9649,2.0063
2025-05-24T06:14:00.414Z,-0.3134,1.9331,0.2979,9.4909,-12.1665,-0.4414,-0.8235,0.2627,2.3428
2025-05-24T06:14:00.425Z,-0.1782,1.9163,0.3088,8.5704,-12.1299,-0.7401,-0.8972,1.0608,2.9092
2025-05-24T06:14:00.434Z,-0.2966,1.8489,0.5022,10.1283,-11.6756,-2.583,-0.6665,1.0545,3.2673
2025-05-24T06:14:00.445Z,-0.3052,1.7631,0.6862,9.8967,-11.1476,-4.1832,-0.4597,0.2267,3.6278
2025-05-24T06:14:00.454Z,0.1163,1.702,0.5871,5.8912,-10.8807,-2.9643,-0.4835,-0.523,4.3492
2025-05-24T06:14:00.464Z,0.2551,1.628,0.6454,5.4655,-10.5062,-3.9269,-0.733,-0.439,4.7279
2025-05-24T06:14:00.475Z,0.0873,1.4445,0.6202,7.335,-8.8459,-3.069,-0.7484,0.0639,4.742
2025-05-24T06:14:00.484Z,-0.0893,1.151,0.2991,9.448,-6.3332,0.1736,-0.3884,0.3926,4.3
2025-05-24T06:14:00.495Z,-0.3809,0.8728,0.0388,12.2848,-3.7748,2.5887,-0.0017,0.2361,3.2605
2025-05-24T06:14:00.505Z,-0.4129,0.4921,-0.1574,12.3464,-0.0461,4.5574,0.1703,0.355,1.9827
2025-05-24T06:14:00.514Z,-0.3578,0.1053,-0.2522,11.8847,3.584,5.1971,0.1739,0.81,0.6851
2025-05-24T06:14:00.525Z,-0.338,-0.1197,-0.1176,11.5084,5.6257,3.9012,0.2019,0.9014,-0.5179
2025-05-24T06:14:00.534Z,-0.1161,-0.1432,-0.0687,8.9978,5.7263,3.5531,0.4777,0.5967,-1.3463
2025-05-24T06:14:00.546Z,0.1306,0.0366,-0.0041,6.7852,3.9818,2.7517,0.7895,0.1844,-1.7889
2025-05-24T06:14:00.554Z,0.0755,0.256,0.1323,7.5064,2.0968,1.4228,0.8945,-0.0579,-2.1781
2025-05-24T06:14:00.564Z,-0.0739,0.3951,0.1777,8.7763,1.105,1.0265,0.8942,0.1281,-2.6259
2025-05-24T06:14:00.575Z,-0.1342,0.4293,0.2053,9.0637,1.1653,0.7424,0.979,0.4837,-3.057
2025-05-24T06:14:00.584Z,-0.1243,0.383,0.2104,8.7421,1.9689,0.7658,1.1305,0.7463,-3.3869
2025-05-24T06:14:00.595Z,-0.1528,0.335,0.1609,8.8509,2.6912,1.2688,1.2376,0.9771,-3.6638
2025-05-24T06:14:00.604Z,-0.1968,0.3532,0.1349,8.9302,2.7392,1.4804,1.3006,1.2728,-3.9171
2025-05-24T06:14:00.614Z,-0.1506,0.4408,0.1635,8.069,2.1314,1.1496,1.3813,1.5388,-4.0874
2025-05-24T06:14:00.625Z,-0.0448,0.5572,0.2182,6.6591,1.3229,0.6184,1.4876,1.6219,-4.196
2025-05-24T06:14:00.634Z,0.0611,0.643,0.2663,5.2951,0.8314,0.149,1.6051,1.6006,-4.3637
2025-05-24T06:14:00.645Z,0.14,0.7243,0.2912,4.1519,0.341,-0.1042,1.6779,1.4983,-4.6195
2025-05-24T06:14:00.655Z,0.2226,0.8166,0.3247,2.9037,-0.2712,-0.5586,1.7048,1.3549,-4.9423
2025-05-24T06:14:00.664Z,0.3142,0.9315,0.3942,1.5442,-1.1188,-1.3277,1.7266,1.1806,-5.2796
2025-05-24T06:14:00.675Z,0.3907,1.0561,0.4585,0.3435,-2.0324,-2.0605,1.7641,1.0011,-5.5833
2025-05-24T06:14:00.684Z,0.4292,1.1665,0.5298,-0.5099,-2.803,-2.8876,1.8086,0.7623,-5.8135
2025-05-24T06:14:00.695Z,0.4604,1.2531,0.5761,-1.384,-3.3882,-3.4531,1.8238,0.6996,-5.9362
2025-05-24T06:14:00.704Z,0.527,1.3371,0.6456,-2.6432,-4.0053,-4.3405,1.7691,0.8408,-5.8903
2025-05-24T06:14:00.714Z,0.6052,1.4093,0.7429,-3.9149,-4.5368,-5.3964,1.721,0.9917,-5.7062
2025-05-24T06:14:00.724Z,0.6521,1.4949,0.8014,-4.909,-5.2819,-6.0598,1.6976,1.0766,-5.5033
2025-05-24T06:14:00.735Z,0.7294,1.6102,0.8039,-6.2593,-6.3301,-6.1473,1.4342,0.9202,-5.078
2025-05-24T06:14:00.746Z,0.8584,1.6878,0.7781,-8.039,-6.9227,-6.0374,1.1969,0.6958,-4.8177
2025-05-24T06:14:00.755Z,0.9685,1.6533,0.7878,-9.5288,-6.4,-6.3026,0.9761,0.3519,-4.5175
2025-05-24T06:14:00.764Z,1.0404,1.5224,0.8256,-10.6156,-5.0432,-6.7391,0.9761,0.3519,-4.5175
2025-05-24T06:14:00.776Z,1.0505,1.3911,0.792,-11.0254,-3.845,-6.3438,0.5445,-0.1175,-4.1847
2025-05-24T06:14:00.785Z,0.9797,1.3243,0.687,-10.6568,-3.279,-5.3396,0.405,-0.3013,-4.2267
2025-05-24T06:14:00.796Z,0.9147,1.2928,0.5983,-10.5543,-3.0646,-4.559,0.3217,-0.4041,-4.2449
2025-05-24T06:14:00.805Z,0.9616,1.2923,0.519,-11.4708,-3.1395,-3.7384,0.2705,-0.3768,-4.2151
2025-05-24T06:14:00.814Z,0.9697,1.2696,0.4028,-11.7863,-2.9574,-2.6545,0.2705,-0.3768,-4.2151
2025-05-24T06:14:00.825Z,0.8673,1.22,0.354,-11.0985,-2.5543,-2.26,0.0737,-0.0461,-3.5306
2025-05-24T06:14:00.835Z,0.7891,1.1824,0.343,-10.7234,-2.3131,-2.2025,-0.0529,0.2454,-2.8953
2025-05-24T06:14:00.846Z,0.798,1.1567,0.3748,-11.2356,-2.1418,-2.5522,-0.178,0.3551,-2.0903
2025-05-24T06:14:00.855Z,0.9539,1.1192,0.4057,-13.0585,-1.8023,-2.792,-0.2767,0.3181,-1.2913
2025-05-24T06:14:00.865Z,1.1374,1.0318,0.3618,-14.9326,-0.9098,-2.2577,-0.4145,0.3162,-0.5422
2025-05-24T06:14:00.875Z,1.3014,0.8845,0.28,-16.5155,0.5516,-1.4352,-0.5681,0.2938,0.0934
2025-05-24T06:14:00.885Z,1.352,0.753,0.2304,-16.8128,1.7795,-0.9629,-0.6621,0.2681,0.6653
2025-05-24T06:14:00.896Z,1.277,0.6918,0.2176,-15.8954,2.2915,-0.7884,-0.7335,0.4353,1.2522
2025-05-24T06:14:00.905Z,1.1406,0.7295,0.1966,-14.4079,1.8356,-0.5399,-0.7931,0.7452,1.8291
2025-05-24T06:14:00.915Z,1.0082,0.8245,0.2021,-13.0044,0.9546,-0.5856,-0.8159,1.0205,2.3624
2025-05-24T06:14:00.926Z,0.844,0.9494,0.0973,-12.2131,0.3324,-0.5748,-0.7821,1.3596,2.6998
2025-05-24T06:14:00.934Z,0.844,0.9494,0.0973,-10.8024,-0.0955,0.7574,-0.7452,1.8288,2.7073
2025-05-24T06:14:00.946Z,0.5417,1.0215,-0.0739,-7.4407,-0.7528,2.3426,-0.6355,1.6997,2.3548
2025-05-24T06:14:00.955Z,-0.7972,1.0688,-0.1533,-2.4187,-0.9206,2.3694,-0.3866,1.1195,1.1763
2025-05-24T06:14:00.964Z,-0.7972,1.0688,-0.1533,6.7658,-1.142,3.1,-0.3935,0.8398,-0.9972
2025-05-24T06:14:00.976Z,-1.9897,1.1544,0.289,15.896,-1.5659,1.1026,-0.5592,0.8379,-3.0866
2025-05-24T06:14:00.984Z,-1.9897,1.1544,0.289,15.8869,-2.1842,-1.2015,-0.5629,1.5179,-3.0415
2025-05-24T06:14:00.996Z,-0.585,1.3698,-0.0452,-0.2132,-4.7796,2.7165,-0.5125,2.8954,0.1505
2025-05-24T06:14:01.005Z,1.7295,2.6543,0.2585,-24.17,-11.4702,5.407,-0.7829,0.9865,2.5067
2025-05-24T06:14:01.014Z,-0.2872,2.7091,0.9256,-17.0598,-17.1996,-2.2092,-0.7829,0.9865,2.5067
2025-05-24T06:14:01.025Z,-0.1212,2.1906,0.1955,1.3955,-16.8714,-7.1009,-1.022,-0.2469,2.7496
2025-05-24T06:14:01.034Z,-0.1212,2.1906,0.1955,-2.2674,-11.3701,1.1113,-1.0274,1.5118,3.0639
2025-05-24T06:14:01.045Z,0.4542,1.6333,-0.3763,-6.3461,-6.0143,5.4997,-1.3135,0.8263,2.9806
2025-05-24T06:14:01.055Z,0.2364,0.8786,0.3236,-3.4482,-1.8285,1.5893,-1.4372,0.1201,2.9676
2025-05-24T06:14:01.064Z,0.2544,0.6792,0.5201,-3.957,1.1409,-1.263,-1.2339,0.0388,3.0243
