time,gFx,gFy,gFz,ax,ay,az,wx,wy,wz
2025-05-24T06:13:12.884Z,0.1314,0.9894,-0.0035,-0.135,0.0338,0.0474,-0.0148,-0.0049,0.0367
2025-05-24T06:13:12.891Z,0.1594,0.9872,0.0012,0.0411,-0.0184,0.0471,-0.0088,0.0162,0.0178
2025-05-24T06:13:12.902Z,0.1597,0.9948,0.0074,0.0193,-0.0724,-0.0291,-0.0129,-0.0045,0.0118
2025-05-24T06:13:12.911Z,0.1567,0.9898,0.0164,0.0576,-0.0247,-0.0953,-0.012,-0.0196,0.0148
2025-05-24T06:13:12.922Z,0.1533,0.9852,0.0083,0.0957,0.0283,-0.0087,-0.0096,-0.0136,0.0152
2025-05-24T06:13:12.931Z,0.1503,0.9794,-0.0003,0.1167,0.0802,0.0768,-0.0066,-0.0084,0.0147
2025-05-24T06:13:12.941Z,0.1479,0.9775,-0.0056,0.1383,0.0874,0.1202,-0.0099,0.0048,0.0147
2025-05-24T06:13:12.952Z,0.1525,0.9817,-0.0009,0.0835,0.0472,0.0591,-0.0119,0.0057,0.0178
2025-05-24T06:13:12.961Z,0.1533,0.9872,0.0061,0.0932,-0.0125,-0.0017,-0.0116,-0.0076,0.0154
2025-05-24T06:13:12.972Z,0.1525,0.9892,0.0099,0.0804,-0.022,-0.0293,-0.0107,-0.0069,0.0114
2025-05-24T06:13:12.981Z,0.1611,0.9846,0.006,0.0185,0.0205,0.0071,-0.0059,-0.02,0.011
2025-05-24T06:13:12.991Z,0.1535,0.9877,0.0089,0.0848,-0.0195,-0.0352,-0.0111,-0.0354,0.0046
2025-05-24T06:13:13.002Z,0.1665,0.9916,0.0155,-0.0578,-0.0509,-0.0841,-0.0152,-0.0413,0.008
2025-05-24T06:13:13.011Z,0.1713,0.9935,0.0047,-0.0634,-0.0648,0.0273,-0.0172,-0.0396,0.0036
2025-05-24T06:13:13.022Z,0.1567,0.9986,-0.0042,0.0819,-0.1138,0.1054,-0.0236,-0.0427,-0.0021
2025-05-24T06:13:13.031Z,0.1454,0.9971,0.0024,0.1679,-0.0843,0.0306,-0.0289,-0.0501,-0.0023
2025-05-24T06:13:13.041Z,0.1471,0.9823,0.0085,0.1497,0.0567,-0.024,-0.016,-0.0365,0.0064
2025-05-24T06:13:13.052Z,0.142,0.9789,0.0026,0.2036,0.0757,0.0483,-0.0128,-0.0197,0.0171
2025-05-24T06:13:13.061Z,0.1459,0.9769,0.0019,0.1363,0.1045,0.0408,-0.0106,0.0104,0.0143
2025-05-24T06:13:13.072Z,0.17,0.9864,0.0132,-0.0963,-0.0253,-0.0748,-0.0079,-0.0183,0.0214
2025-05-24T06:13:13.081Z,0.1716,0.997,0.0185,-0.0716,-0.0936,-0.112,-0.0089,-0.0555,0.0071
2025-05-24T06:13:13.091Z,0.157,0.9879,0.009,0.063,-0.0009,-0.0086,-0.007,-0.0518,-0.0123
2025-05-24T06:13:13.102Z,0.1494,0.9855,-0.0042,0.1257,0.0094,0.1155,-0.0142,-0.0628,-0.0123
2025-05-24T06:13:13.111Z,0.1468,0.9817,-0.0057,0.1586,0.0614,0.1109,-0.0166,-0.0515,-0.0088
2025-05-24T06:13:13.123Z,0.1413,0.9749,0.0014,0.201,0.1176,0.0451,-0.0155,-0.0334,0.0021
2025-05-24T06:13:13.131Z,0.1488,0.9751,0.0005,0.1101,0.1066,0.0682,-0.0155,-0.0334,0.0021
2025-05-24T06:13:13.141Z,0.1525,0.9743,-0.0046,0.1001,0.115,0.1129,-0.0179,-0.0171,0.0141
2025-05-24T06:13:13.151Z,0.1573,0.9864,-0.0014,0.0304,-0.013,0.0675,-0.0166,-0.0024,0.024
2025-05-24T06:13:13.161Z,0.1616,0.9948,0.0081,0.0201,-0.0931,-0.0297,-0.0172,0.0042,0.0204
2025-05-24T06:13:13.173Z,0.1589,1.0005,0.0179,0.0156,-0.1359,-0.1165,-0.013,-0.01,0.0219
2025-05-24T06:13:13.181Z,0.1531,0.9892,0.0106,0.1293,-0.0028,-0.015,-0.013,-0.01,0.0219
2025-05-24T06:13:13.193Z,0.1366,0.9766,-0.0057,0.2617,0.1153,0.1416,-0.0118,0.0469,0.0488
2025-05-24T06:13:13.203Z,0.1288,0.9743,-0.0018,0.3501,0.0972,0.0588,-0.0009,0.0665,0.0581
2025-05-24T06:13:13.211Z,0.1422,0.9899,0.0108,0.1614,-0.046,-0.0417,-0.0009,0.0665,0.0581
2025-05-24T06:13:13.223Z,0.1538,0.9861,0.0118,0.0603,0.0021,-0.0547,-0.0124,0.0446,0.0621
2025-05-24T06:13:13.231Z,0.1538,0.9861,0.0118,0.0993,0.0159,-0.0467,-0.0068,0.0436,0.0525
2025-05-24T06:13:13.243Z,0.1599,0.9762,0.0066,0.0547,0.0908,0.0192,-0.02,0.0538,0.0544
2025-05-24T06:13:13.252Z,0.1571,0.9883,-0.0048,0.0709,-0.0334,0.1124,-0.0028,0.0509,0.0509
2025-05-24T06:13:13.261Z,0.1756,0.9909,0.0104,-0.1154,-0.039,-0.0577,-0.0028,0.0509,0.0509
2025-05-24T06:13:13.273Z,0.164,0.9828,0.0128,0.0476,0.0315,-0.0314,-0.0214,0.0007,0.0277
2025-05-24T06:13:13.282Z,0.1701,0.9798,0.0099,-0.0589,0.0707,-0.0314,-0.0066,-0.0101,0.021
2025-05-24T06:13:13.292Z,0.1575,0.9758,0.002,0.13,0.0958,0.0759,-0.0218,0.0166,0.0348
2025-05-24T06:13:13.302Z,0.1424,0.9848,-0.0085,0.2349,-0.0078,0.1513,-0.0199,0.0371,0.0549
2025-05-24T06:13:13.311Z,0.1424,0.9906,0.006,0.2455,-0.0446,0.0104,-0.0199,0.0371,0.0549
2025-05-24T06:13:13.321Z,0.1424,0.9906,0.006,0.1701,-0.0442,0.0221,-0.0067,0.0784,0.0627
2025-05-24T06:13:13.332Z,0.1774,0.997,0.0148,0.0666,-0.0967,-0.0909,-0.0072,0.0305,0.0479
2025-05-24T06:13:13.342Z,0.1704,0.9946,-0.0003,-0.0877,-0.1061,-0.0466,-0.0093,0.032,0.0456
2025-05-24T06:13:13.352Z,0.1704,0.9946,-0.0003,0.0124,-0.0864,0.103,-0.0159,0.0405,0.0439
2025-05-24T06:13:13.362Z,0.1485,0.9883,-0.0069,0.2158,-0.0137,0.153,-0.0145,0.0475,0.0575
2025-05-24T06:13:13.373Z,0.1483,0.9814,-0.0075,0.2088,0.0435,0.1611,-0.0156,0.0608,0.0679
2025-05-24T06:13:13.382Z,0.147,0.9789,-0.0056,0.234,0.0659,0.1262,-0.0109,0.0603,0.0792
2025-05-24T06:13:13.393Z,0.1574,0.9796,0.0059,0.2222,0.0837,0.024,-0.0104,0.0597,0.078
2025-05-24T06:13:13.402Z,0.1574,0.9796,0.0059,0.135,0.043,0.0236,-0.0122,0.0515,0.0793
2025-05-24T06:13:13.412Z,0.1696,0.9874,0.0098,0.002,-0.0264,-0.0209,-0.0085,0.0355,0.0716
2025-05-24T06:13:13.423Z,0.19,0.9832,0.0143,-0.184,0.026,-0.0536,-0.0048,0.0059,0.0579
2025-05-24T06:13:13.431Z,0.1855,0.9844,0.0189,-0.0799,-0.0031,-0.1058,-0.0068,-0.0025,0.0616
2025-05-24T06:13:13.443Z,0.1396,0.9814,0.0093,0.2049,-0.0103,-0.1059,0.0003,0.0354,0.085
2025-05-24T06:13:13.452Z,0.1334,0.9743,0.0052,0.3695,0.0439,0.0159,0.0069,0.0842,0.1033
2025-05-24T06:13:13.461Z,0.1334,0.9743,0.0052,0.412,0.1041,0.0197,0.0139,0.1178,0.1239
2025-05-24T06:13:13.472Z,0.1477,0.9772,0.0224,0.2665,0.0563,-0.1612,0.0242,0.1099,0.1262
2025-05-24T06:13:13.482Z,0.1811,0.996,0.0321,0.09,-0.0418,-0.2878,0.0172,0.0668,0.1045
2025-05-24T06:13:13.493Z,0.1946,0.9831,0.0139,-0.0418,-0.1137,-0.2153,0.0163,0.0182,0.0859
2025-05-24T06:13:13.502Z,0.1742,0.9542,0.0089,-0.1258,0.045,-0.0348,0.0003,-0.0243,0.0868
2025-05-24T06:13:13.511Z,0.1742,0.9542,0.0089,0.0808,0.3119,-0.0094,0.0033,-0.0155,0.1046
2025-05-24T06:13:13.522Z,0.1745,0.9569,0.0029,0.0693,0.2355,0.0658,0.0117,0.0315,0.0821
2025-05-24T06:13:13.531Z,0.1802,0.9863,-0.0015,0.1818,0.1277,0.2023,-0.0106,-0.0028,0.0782
2025-05-24T06:13:13.542Z,0.2044,0.987,-0.0058,-0.0283,-0.0523,0.0855,-0.0196,-0.0584,0.0676
2025-05-24T06:13:13.552Z,0.1912,0.977,-0.0099,-0.2062,-0.0089,0.1464,-0.026,-0.0763,0.0352
2025-05-24T06:13:13.561Z,0.1934,0.9634,-0.0102,-0.0491,0.0724,0.183,-0.0255,-0.034,0.0145
2025-05-24T06:13:13.572Z,0.1934,0.9634,-0.0102,-0.124,0.1929,0.158,-0.0268,-0.0842,0.0072
2025-05-24T06:13:13.581Z,0.2159,1.0071,0.0275,-0.2838,-0.1233,-0.1661,-0.0251,-0.1258,-0.0186
2025-05-24T06:13:13.592Z,0.1932,0.9847,0.0126,-0.3003,-0.2101,-0.1687,-0.027,-0.1605,-0.0545
2025-05-24T06:13:13.602Z,0.1773,0.9765,-0.0004,-0.0815,0.0082,-0.0252,-0.0382,-0.1917,-0.049
2025-05-24T06:13:13.612Z,0.1574,0.9724,-0.0088,0.0658,0.0664,0.0975,-0.0417,-0.2036,-0.0322
2025-05-24T06:13:13.622Z,0.1574,0.9724,-0.0088,0.2794,0.1211,0.1735,-0.0373,-0.1592,-0.0134
2025-05-24T06:13:13.631Z,0.171,0.9876,0.0102,0.3044,0.1128,0.1551,-0.0405,-0.1466,-0.0001
2025-05-24T06:13:13.642Z,0.1945,1.0009,0.0087,0.0648,-0.0717,-0.0336,-0.0372,-0.1651,0.0001
2025-05-24T06:13:13.652Z,0.1867,0.9945,-0.0094,-0.1288,-0.1635,0.0168,-0.0302,-0.1619,-0.0174
2025-05-24T06:13:13.661Z,0.1771,1.0099,0.0005,-0.0338,-0.1088,0.1794,-0.0578,-0.2075,-0.0096
2025-05-24T06:13:13.672Z,0.1697,1.002,0.0164,0.0534,-0.2708,0.052,-0.0517,-0.2464,0.0116
2025-05-24T06:13:13.681Z,0.1617,0.9847,-0.0005,0.1212,-0.153,-0.0735,-0.059,-0.2187,0.0214
2025-05-24T06:13:13.691Z,0.1549,0.9818,-0.0157,0.2093,0.0042,0.1127,-0.0693,-0.2152,0.0353
2025-05-24T06:13:13.702Z,0.1687,0.9828,-0.0191,0.247,0.0011,0.2399,-0.0583,-0.2035,0.0581
2025-05-24T06:13:13.711Z,0.1654,0.9702,-0.0131,0.1342,0.0231,0.2632,-0.0556,-0.1763,0.0502
2025-05-24T06:13:13.722Z,0.194,0.9916,-0.0099,0.1558,0.1165,0.2127,-0.0802,-0.2114,0.0372
2025-05-24T06:13:13.731Z,0.2153,0.9993,0.0078,-0.1418,-0.1198,0.163,-0.08,-0.2665,0.0228
2025-05-24T06:13:13.742Z,0.2092,0.9834,0.0149,-0.3239,-0.1417,-0.0069,-0.0832,-0.3071,0.0005
2025-05-24T06:13:13.752Z,0.2075,0.9784,-0.0006,-0.2427,0.008,-0.0488,-0.0956,-0.309,-0.0042
2025-05-24T06:13:13.761Z,0.1888,0.9729,-0.0049,-0.246,0.0586,0.1221,-0.092,-0.3126,-0.0113
2025-05-24T06:13:13.771Z,0.1888,0.9729,-0.0049,-0.0089,0.0975,0.1351,-0.116,-0.4023,-0.0192
2025-05-24T06:13:13.781Z,0.1718,0.9701,-0.0172,0.1935,0.0726,0.1043,-0.112,-0.3873,-0.0059
2025-05-24T06:13:13.792Z,0.1685,0.9611,-0.0223,0.1024,0.1392,0.289,-0.1198,-0.3504,-0.0069
2025-05-24T06:13:13.802Z,0.1697,0.968,-0.011,0.14,0.2204,0.3204,-0.1343,-0.3101,-0.0236
2025-05-24T06:13:13.811Z,0.1747,0.9939,0.0213,0.1198,0.1202,0.1896,-0.1558,-0.3475,-0.0384
2025-05-24T06:13:13.822Z,0.1863,1.0006,0.0271,0.0509,-0.134,-0.1149,-0.1716,-0.3711,-0.0387
2025-05-24T06:13:13.831Z,0.1697,0.9635,0.0023,-0.0437,-0.1435,-0.1115,-0.1869,-0.3641,-0.0495
2025-05-24T06:13:13.842Z,0.146,0.9424,-0.0126,0.1495,0.2371,0.1525,-0.2143,-0.3556,-0.0444
2025-05-24T06:13:13.852Z,0.1384,0.961,-0.0056,0.36,0.3899,0.2897,-0.2383,-0.3207,-0.0251
2025-05-24T06:13:13.861Z,0.1455,0.9819,-0.002,0.4104,0.1828,0.2173,-0.2444,-0.2514,-0.0127
2025-05-24T06:13:13.872Z,0.1718,0.9834,-0.0213,0.3105,0.0025,0.2272,-0.2628,-0.1779,-0.01
2025-05-24T06:13:13.881Z,0.1782,0.9859,-0.0199,0.0634,0.0076,0.4443,-0.2823,-0.167,-0.0048
2025-05-24T06:13:13.892Z,0.1655,0.9892,0.0019,0.0262,-0.0336,0.4109,-0.306,-0.1992,0.0113
2025-05-24T06:13:13.902Z,0.1499,0.9772,0.0015,0.1647,-0.0475,0.2307,-0.318,-0.185,0.0206
2025-05-24T06:13:13.911Z,0.1391,0.9722,-0.0021,0.3175,0.068,0.2989,-0.3301,-0.1578,0.0265
2025-05-24T06:13:13.921Z,0.1499,0.9709,0.0125,0.4039,0.107,0.3256,-0.3365,-0.1437,0.0434
2025-05-24T06:13:13.931Z,0.157,0.9727,0.0166,0.2867,0.1108,0.221,-0.3526,-0.1184,0.0553
2025-05-24T06:13:13.942Z,0.1584,0.975,0.0102,0.2418,0.0879,0.2272,-0.3723,-0.0915,0.0672
2025-05-24T06:13:13.952Z,0.1561,0.9746,0.0179,0.2315,0.0762,0.3155,-0.377,-0.0668,0.0751
2025-05-24T06:13:13.961Z,0.1548,0.9816,0.0338,0.2734,0.0741,0.2546,-0.3799,-0.0384,0.0849
2025-05-24T06:13:13.971Z,0.1763,0.9839,0.0334,0.2624,-0.009,0.1373,-0.3796,-0.0177,0.0885
2025-05-24T06:13:13.981Z,0.1897,0.9695,0.0348,0.0629,-0.0061,0.2036,-0.3721,-0.026,0.0766
2025-05-24T06:13:13.992Z,0.196,0.9773,0.0452,-0.0544,0.1182,0.2092,-0.3729,-0.0539,0.0579
2025-05-24T06:13:14.002Z,0.203,0.9884,0.053,-0.1093,0.0198,0.1305,-0.379,-0.07,0.0447
2025-05-24T06:13:14.011Z,0.2204,0.9893,0.068,-0.1867,-0.0831,0.0901,-0.3842,-0.0762,0.0289
2025-05-24T06:13:14.021Z,0.2182,0.9831,0.0878,-0.3394,-0.0889,-0.0394,-0.3777,-0.1135,-0.0004
2025-05-24T06:13:14.031Z,0.1974,0.9837,0.0715,-0.3063,-0.0197,-0.1626,-0.3878,-0.1451,-0.0294
2025-05-24T06:13:14.042Z,0.1705,0.9954,0.0588,-0.08,-0.0487,0.052,-0.396,-0.1346,-0.0348
2025-05-24T06:13:14.052Z,0.1733,0.9924,0.0641,0.154,-0.1638,0.1812,-0.3804,-0.0627,-0.0399
2025-05-24T06:13:14.061Z,0.1962,0.9688,0.0654,0.0932,-0.0969,0.1616,-0.3674,0.0099,-0.0719
2025-05-24T06:13:14.071Z,0.2211,0.9672,0.0887,-0.1549,0.1218,0.1819,-0.3702,0.0002,-0.1126
2025-05-24T06:13:14.081Z,0.232,0.9875,0.1285,-0.3869,0.0983,-0.055,-0.3748,-0.0665,-0.1471
2025-05-24T06:13:14.093Z,0.2439,0.9864,0.1205,-0.6293,-0.0434,-0.229,-0.3653,-0.1093,-0.1915
2025-05-24T06:13:14.102Z,0.2345,0.9574,0.1094,-0.6293,-0.0434,-0.229,-0.377,-0.1731,-0.2489
2025-05-24T06:13:14.111Z,0.217,0.948,0.1137,-0.5383,0.2567,-0.112,-0.3648,-0.2593,-0.2797
2025-05-24T06:13:14.121Z,0.2097,0.9671,0.1179,-0.4119,0.2982,-0.1204,-0.3595,-0.3044,-0.2948
2025-05-24T06:13:14.131Z,0.1943,0.9803,0.1209,-0.3548,0.105,-0.1511,-0.354,-0.3152,-0.3266
2025-05-24T06:13:14.143Z,0.1799,0.991,0.1185,-0.1237,-0.1024,-0.1062,-0.3446,-0.3284,-0.3476
2025-05-24T06:13:14.153Z,0.1719,0.9807,0.1336,-0.0784,0.025,-0.2251,-0.3486,-0.3478,-0.3532
2025-05-24T06:13:14.161Z,0.1588,0.969,0.1349,-0.0784,0.025,-0.2251,-0.3367,-0.359,-0.3594
2025-05-24T06:13:14.171Z,0.1263,0.9836,0.114,0.0417,0.1045,-0.1798,-0.3426,-0.3581,-0.3532
2025-05-24T06:13:14.181Z,0.1146,0.992,0.1023,0.3266,-0.0455,0.0571,-0.3472,-0.2914,-0.32
2025-05-24T06:13:14.192Z,0.1236,0.9821,0.1007,0.262,0.0017,0.2157,-0.3374,-0.2046,-0.2981
2025-05-24T06:13:14.202Z,0.1292,0.9816,0.1084,0.1779,-0.0285,0.1609,-0.3302,-0.1689,-0.2875
2025-05-24T06:13:14.211Z,0.139,1.0004,0.1249,0.1779,-0.0285,0.1609,-0.3275,-0.1884,-0.279
2025-05-24T06:13:14.222Z,0.1467,1.0033,0.1337,-0.0363,-0.2036,-0.0197,-0.3259,-0.2172,-0.29
2025-05-24T06:13:14.231Z,0.1346,0.9824,0.1398,-0.0363,-0.2036,-0.0197,-0.3304,-0.253,-0.3057
2025-05-24T06:13:14.242Z,0.1097,0.9626,0.1393,0.3028,0.1988,-0.0043,-0.3315,-0.2756,-0.2983
2025-05-24T06:13:14.252Z,0.0837,0.955,0.1293,0.54,0.2532,0.1228,-0.3284,-0.2165,-0.2577
2025-05-24T06:13:14.262Z,0.0556,0.9542,0.1187,0.7949,0.2639,0.2559,-0.3231,-0.1271,-0.219
2025-05-24T06:13:14.272Z,0.0513,0.9593,0.1144,0.7636,0.1995,0.3003,-0.3155,-0.0454,-0.181
2025-05-24T06:13:14.282Z,0.0917,0.9732,0.1352,0.3268,0.0543,0.0985,-0.303,0.0167,-0.1514
2025-05-24T06:13:14.292Z,0.1301,0.9818,0.1523,-0.0555,-0.027,-0.011,-0.3009,0.0134,-0.1692
2025-05-24T06:13:14.302Z,0.1585,0.9907,0.1587,-0.3459,-0.1185,-0.053,-0.3065,-0.0582,-0.1991
2025-05-24T06:13:14.311Z,0.1801,0.9933,0.1752,-0.5548,-0.1186,-0.1948,-0.3064,-0.1432,-0.2147
2025-05-24T06:13:14.322Z,0.1697,0.9789,0.1857,-0.4243,0.0205,-0.248,-0.3013,-0.1991,-0.2306
2025-05-24T06:13:14.332Z,0.1363,0.976,0.1823,-0.137,0.0236,-0.1906,-0.2983,-0.2607,-0.2404
2025-05-24T06:13:14.342Z,0.1272,0.9852,0.1649,-0.0641,-0.0708,0.0183,-0.2916,-0.2782,-0.2383
2025-05-24T06:13:14.352Z,0.1016,1.0023,0.1488,0.1814,-0.2542,0.1865,-0.2757,-0.2713,-0.235
2025-05-24T06:13:14.361Z,0.0845,1.0096,0.1497,0.3022,-0.2818,0.1706,-0.2829,-0.248,-0.2226
2025-05-24T06:13:14.377Z,0.0809,0.9885,0.1706,0.3022,-0.2818,0.1706,-0.2728,-0.2102,-0.2063
2025-05-24T06:13:14.381Z,0.0815,0.9787,0.169,0.2832,0.0008,0.0558,-0.2488,-0.1632,-0.1966
2025-05-24T06:13:14.392Z,0.0924,0.9811,0.1705,0.1431,-0.0318,0.0332,-0.2557,-0.1493,-0.1972
2025-05-24T06:13:14.402Z,0.1104,0.9809,0.1915,-0.0371,-0.0379,-0.1498,-0.2403,-0.143,-0.2023
2025-05-24T06:13:14.411Z,0.1212,0.9806,0.2034,-0.1668,-0.0157,-0.2292,-0.2256,-0.1531,-0.2255
2025-05-24T06:13:14.421Z,0.1434,0.9649,0.2021,-0.4332,0.1536,-0.2081,-0.23,-0.1563,-0.2535
2025-05-24T06:13:14.431Z,0.1633,0.9344,0.212,-0.6075,0.465,-0.2892,-0.2317,-0.1846,-0.297
2025-05-24T06:13:14.442Z,0.1528,0.9147,0.2181,-0.5331,0.6158,-0.3169,-0.2104,-0.2355,-0.361
2025-05-24T06:13:14.452Z,0.1492,0.9327,0.2126,-0.5349,0.3944,-0.2407,-0.1922,-0.2742,-0.406
2025-05-24T06:13:14.461Z,0.1368,0.9674,0.2018,-0.4272,0.0677,-0.1267,-0.1876,-0.2889,-0.4378
2025-05-24T06:13:14.472Z,0.1156,0.9829,0.2023,-0.2639,-0.0428,-0.1314,-0.1838,-0.2973,-0.4717
2025-05-24T06:13:14.481Z,0.0991,0.9791,0.206,-0.1492,-0.0062,-0.1377,-0.1683,-0.3324,-0.4997
2025-05-24T06:13:14.492Z,0.0845,0.976,0.1941,-0.0428,0.0231,0.0002,-0.145,-0.3191,-0.5093
2025-05-24T06:13:14.502Z,0.0486,0.9766,0.1891,0.2871,0.0203,0.0401,-0.138,-0.3215,-0.5169
2025-05-24T06:13:14.511Z,0.0314,0.9694,0.1883,0.3467,0.1085,0.0615,-0.1423,-0.3152,-0.508
2025-05-24T06:13:14.522Z,0.041,0.9481,0.191,0.2138,0.3233,0.0314,-0.146,-0.2884,-0.4908
2025-05-24T06:13:14.531Z,0.0499,0.938,0.2074,0.0971,0.3971,-0.1371,-0.1341,-0.2612,-0.4679
2025-05-24T06:13:14.542Z,0.038,0.9541,0.2274,0.2084,0.2163,-0.2982,-0.1145,-0.2607,-0.4478
2025-05-24T06:13:14.552Z,0.0135,0.9783,0.2265,0.4125,-0.0228,-0.2601,-0.1016,-0.2442,-0.4111
2025-05-24T06:13:14.561Z,-0.0135,0.9963,0.2109,0.6614,-0.1891,-0.097,-0.0949,-0.1978,-0.3666
2025-05-24T06:13:14.572Z,-0.032,1.0046,0.197,0.7769,-0.2577,0.0387,-0.0841,-0.1276,-0.3234
2025-05-24T06:13:14.581Z,-0.0159,1.001,0.1937,0.5558,-0.2098,0.0647,-0.0757,-0.0553,-0.2972
2025-05-24T06:13:14.592Z,0.0134,0.9888,0.2041,0.2356,-0.0826,-0.0486,-0.069,-0.03,-0.2792
2025-05-24T06:13:14.602Z,0.0397,0.9794,0.2181,-0.0204,-0.0102,-0.1632,-0.0556,-0.0563,-0.2738
2025-05-24T06:13:14.611Z,0.0433,0.9845,0.2151,-0.0593,-0.063,-0.1175,-0.0477,-0.0892,-0.2765
2025-05-24T06:13:14.622Z,0.0345,0.9878,0.2101,-0.0064,-0.0854,-0.0808,-0.0457,-0.0969,-0.2791
2025-05-24T06:13:14.631Z,0.0359,0.9837,0.2104,-0.0658,-0.0471,-0.0756,-0.0454,-0.0755,-0.2684
2025-05-24T06:13:14.642Z,0.0406,0.9811,0.2134,-0.1108,-0.0248,-0.1142,-0.0393,-0.0267,-0.2543
2025-05-24T06:13:14.652Z,0.0198,0.986,0.2209,0.1009,-0.0847,-0.1778,-0.0254,-0.0112,-0.2407
2025-05-24T06:13:14.661Z,-0.004,0.9941,0.2139,0.2864,-0.1546,-0.0868,-0.0211,-0.0005,-0.2226
2025-05-24T06:13:14.672Z,-0.0092,0.9932,0.1998,0.3122,-0.1277,0.0327,-0.0277,0.0517,-0.1939
2025-05-24T06:13:14.681Z,-0.0181,0.9875,0.2037,0.3793,-0.0793,-0.009,-0.0196,0.0963,-0.1728
2025-05-24T06:13:14.692Z,-0.0149,0.9897,0.2012,0.3146,-0.116,0.0206,-0.0128,0.147,-0.1455
2025-05-24T06:13:14.702Z,-0.0025,0.99,0.2018,0.186,-0.1034,0.0008,-0.0131,0.2049,-0.1125
2025-05-24T06:13:14.711Z,-0.0111,0.9846,0.2139,0.2791,-0.057,-0.1126,-0.0018,0.2182,-0.0953
2025-05-24T06:13:14.722Z,-0.0207,0.986,0.2138,0.324,-0.0728,-0.0873,0.0039,0.2401,-0.0805
2025-05-24T06:13:14.731Z,-0.0061,0.9876,0.2015,0.1734,-0.0751,0.0164,0.0064,0.2901,-0.0528
2025-05-24T06:13:14.742Z,-0.0104,0.9806,0.2045,0.2187,-0.0072,-0.0147,0.0113,0.2975,-0.0477
2025-05-24T06:13:14.753Z,0.0018,0.9776,0.1942,0.0426,0.0126,0.1105,0.006,0.3066,-0.046
2025-05-24T06:13:14.761Z,0.0369,0.9759,0.1921,-0.2928,0.0395,0.0804,-0.003,0.3049,-0.0419
2025-05-24T06:13:14.772Z,0.0331,0.977,0.2112,-0.2221,0.0122,-0.0913,0.005,0.2304,-0.0625
2025-05-24T06:13:14.781Z,0.0245,0.9844,0.2043,-0.1629,-0.061,0.0025,0.0024,0.1716,-0.0797
2025-05-24T06:13:14.792Z,0.0153,0.9841,0.1963,-0.0636,-0.0327,0.0546,-0.0019,0.1504,-0.0851
2025-05-24T06:13:14.803Z,-0.0012,0.9782,0.2016,0.0472,0.0161,0.0037,-0.0012,0.1531,-0.0831
2025-05-24T06:13:14.811Z,0.0073,0.9775,0.2008,-0.0362,0.0109,0.0172,0.0027,0.1812,-0.0651
2025-05-24T06:13:14.822Z,-0.0078,0.9824,0.2072,0.1283,-0.0296,-0.0515,0.0064,0.1865,-0.068
2025-05-24T06:13:14.831Z,-0.0104,0.9848,0.2043,0.1029,-0.0587,-0.0188,0.0107,0.1991,-0.0584
2025-05-24T06:13:14.842Z,-0.0058,0.9834,0.2029,0.0818,-0.036,-0.0098,0.0135,0.2047,-0.0467
2025-05-24T06:13:14.853Z,-0.0179,0.9849,0.2039,0.173,-0.0547,-0.0096,0.0157,0.1949,-0.0398
2025-05-24T06:13:14.861Z,-0.0123,0.9875,0.1982,0.1166,-0.0713,0.0298,0.0153,0.201,-0.0323
2025-05-24T06:13:14.872Z,-0.0203,0.9818,0.2023,0.1946,-0.0196,-0.0123,0.0171,0.1953,-0.0356
2025-05-24T06:13:14.881Z,-0.0171,0.9723,0.1968,0.1225,0.0726,0.0543,0.0165,0.198,-0.0344
2025-05-24T06:13:14.892Z,-0.0057,0.9666,0.1928,0.0137,0.1327,0.0733,0.0126,0.1979,-0.0272
2025-05-24T06:13:14.903Z,0.0014,0.9694,0.1944,-0.0712,0.0895,0.062,0.0084,0.1756,-0.0247
2025-05-24T06:13:14.911Z,0.0114,0.9798,0.1945,-0.1624,-0.014,0.0518,0.0085,0.1455,-0.0283
2025-05-24T06:13:14.921Z,0.0032,0.9923,0.2006,-0.0529,-0.1286,-0.0025,0.0098,0.0884,-0.0366
2025-05-24T06:13:14.931Z,-0.0187,0.9915,0.1932,0.154,-0.1151,0.0823,0.0086,0.0485,-0.0401
2025-05-24T06:13:14.941Z,-0.029,0.9845,0.1828,0.2299,-0.0369,0.1746,0.0059,0.0541,-0.0339
2025-05-24T06:13:14.953Z,-0.0323,0.9724,0.1841,0.2473,0.0922,0.1569,0.0048,0.0679,-0.0253
2025-05-24T06:13:14.961Z,-0.0284,0.9646,0.192,0.2056,0.1585,0.0668,0.0063,0.0697,-0.0114
2025-05-24T06:13:14.973Z,-0.0287,0.9644,0.2,0.22,0.1472,-0.0118,0.0095,0.071,0.0043
2025-05-24T06:13:14.981Z,-0.0262,0.9648,0.2033,0.1814,0.1499,-0.0305,0.0095,0.071,0.0043
2025-05-24T06:13:14.993Z,-0.02,0.9642,0.2003,0.1188,0.1486,-0.0051,0.0072,0.0649,0.0174
2025-05-24T06:13:15.003Z,-0.0217,0.9673,0.2003,0.1493,0.1247,-0.0079,0.0072,0.0649,0.0174
2025-05-24T06:13:15.011Z,-0.0246,0.97,0.1973,0.164,0.0938,0.0263,0.0075,0.0703,0.0218
2025-05-24T06:13:15.022Z,-0.0203,0.9728,0.1928,0.1247,0.067,0.0595,0.0079,0.0743,0.0289
2025-05-24T06:13:15.031Z,-0.0231,0.9754,0.1956,0.1642,0.0465,0.0274,0.0064,0.067,0.0361
2025-05-24T06:13:15.042Z,-0.0269,0.9748,0.1968,0.1924,0.0494,0.0128,0.0054,0.0592,0.0416
2025-05-24T06:13:15.052Z,-0.0245,0.9738,0.194,0.183,0.0627,0.0419,0.0054,0.0592,0.0416
2025-05-24T06:13:15.061Z,-0.0248,0.9685,0.1911,0.1743,0.1244,0.0771,0.0043,0.0604,0.0433
2025-05-24T06:13:15.073Z,-0.0205,0.9687,0.1889,0.1475,0.1009,0.0931,-0.0007,0.0605,0.0503
2025-05-24T06:13:15.081Z,-0.0167,0.9733,0.1901,0.1049,0.0611,0.0834,-0.0007,0.0605,0.0503
2025-05-24T06:13:15.093Z,-0.0086,0.9774,0.1908,0.0179,0.0265,0.0731,-0.0067,0.034,0.0428
2025-05-24T06:13:15.104Z,-0.001,0.9778,0.1942,-0.0376,0.0309,0.0258,-0.0043,0.0097,0.0349
2025-05-24T06:13:15.111Z,-0.0031,0.9771,0.195,-0.0112,0.0246,0.0334,-0.0043,0.0097,0.0349
2025-05-24T06:13:15.122Z,-0.0079,0.981,0.1945,0.0439,-0.0092,0.0367,-0.0075,-0.0008,0.0287
2025-05-24T06:13:15.132Z,-0.0188,0.9781,0.1935,0.1478,0.0224,0.0497,-0.0073,0.0099,0.0303
2025-05-24T06:13:15.142Z,-0.0198,0.9732,0.189,0.1542,0.0773,0.0926,-0.0135,0.0139,0.0266
2025-05-24T06:13:15.154Z,-0.024,0.9688,0.1914,0.2037,0.1154,0.0604,-0.0114,0.0275,0.0277
2025-05-24T06:13:15.162Z,-0.0163,0.968,0.1905,0.1055,0.1125,0.0783,-0.0196,0.0328,0.0274
2025-05-24T06:13:15.173Z,-0.0007,0.9716,0.1947,-0.0337,0.0817,0.0237,-0.016,0.0198,0.0268
2025-05-24T06:13:15.182Z,0.0023,0.9749,0.1996,-0.0562,0.0437,-0.0078,-0.0188,-0.0132,0.0192
2025-05-24T06:13:15.192Z,-0.0031,0.9789,0.2005,0.0098,0.0052,-0.021,-0.0147,-0.0212,0.0181
2025-05-24T06:13:15.204Z,-0.0062,0.9833,0.1969,0.0321,-0.0423,0.0151,-0.0187,-0.0201,0.0145
2025-05-24T06:13:15.212Z,-0.0081,0.9864,0.2003,0.0525,-0.0679,-0.0124,-0.014,-0.0142,0.0206
2025-05-24T06:13:15.222Z,-0.0097,0.9924,0.2005,0.0724,-0.1221,-0.0107,-0.0139,-0.0019,0.0175
2025-05-24T06:13:15.232Z,-0.0206,0.9871,0.2008,0.1833,-0.0489,-0.0059,-0.014,0.0301,0.026
2025-05-24T06:13:15.242Z,-0.016,0.9789,0.1942,0.1075,0.022,0.0495,-0.013,0.0368,0.0294
2025-05-24T06:13:15.253Z,-0.0056,0.9737,0.1984,0.0199,0.0522,0.0035,-0.0121,0.0313,0.0291
2025-05-24T06:13:15.262Z,0.0009,0.9797,0.2011,-0.0343,0.0012,-0.0225,-0.0136,0.018,0.0201
2025-05-24T06:13:15.272Z,-0.004,0.9817,0.1989,0.0204,-0.015,0.0075,-0.0144,0.0145,0.0207
2025-05-24T06:13:15.281Z,-0.0036,0.9814,0.1952,0.0144,-0.0096,0.0307,-0.0186,0.0034,0.0155
2025-05-24T06:13:15.293Z,-0.003,0.9757,0.191,0.0549,0.0293,0.0604,-0.0197,0.0076,0.0115
2025-05-24T06:13:15.303Z,-0.003,0.9757,0.191,0.0001,0.0383,0.0796,-0.0228,-0.004,0.002
2025-05-24T06:13:15.311Z,-0.0038,0.9752,0.1991,0.0146,0.0445,-0.0137,-0.0195,-0.0067,0.007
2025-05-24T06:13:15.322Z,0.0065,0.9794,0.2042,-0.1014,-0.0033,-0.0457,-0.0179,-0.0213,-0.0055
2025-05-24T06:13:15.331Z,0.0062,0.9863,0.2069,-0.0668,-0.0729,-0.0675,-0.0237,-0.0314,-0.0082
2025-05-24T06:13:15.342Z,0.0081,0.9831,0.2108,-0.0718,-0.0915,-0.1242,-0.0231,-0.0406,-0.0158
2025-05-24T06:13:15.353Z,0.0095,0.9834,0.1954,-0.115,-0.0222,-0.0867,-0.0212,-0.0424,-0.0241
2025-05-24T06:13:15.361Z,0.0095,0.9834,0.1954,-0.1134,-0.039,0.0566,-0.0312,-0.0675,-0.0262
2025-05-24T06:13:15.371Z,0.0056,0.9899,0.1868,-0.0797,-0.1149,0.1349,-0.0358,-0.0865,-0.0223
2025-05-24T06:13:15.381Z,-0.0025,0.9967,0.1809,0.0159,-0.1724,0.2069,-0.0434,-0.0924,-0.0253
2025-05-24T06:13:15.392Z,-0.0262,0.9804,0.2011,0.2224,-0.1213,0.214,-0.0499,-0.1187,-0.0118
2025-05-24T06:13:15.402Z,-0.0262,0.9804,0.2011,0.2106,0.0084,-0.0296,-0.0408,-0.1765,-0.0034
2025-05-24T06:13:15.412Z,0.0152,0.9817,0.2139,-0.0028,0.0547,-0.2273,-0.0361,-0.2122,-0.01
2025-05-24T06:13:15.429Z,0.0118,0.991,0.201,-0.1837,-0.0414,-0.0948,-0.0448,-0.2708,-0.0217
2025-05-24T06:13:15.431Z,0.0118,0.991,0.201,-0.1376,-0.1112,0.0248,-0.0609,-0.2753,-0.0243
2025-05-24T06:13:15.442Z,-0.0114,0.9492,0.1805,-0.1148,0.0657,0.1411,-0.0679,-0.227,-0.0382
2025-05-24T06:13:15.453Z,-0.0227,0.9413,0.1905,0.1247,0.316,0.2306,-0.0655,-0.1897,-0.0511
2025-05-24T06:13:15.462Z,-0.016,0.954,0.1961,0.1972,0.3649,0.1219,-0.0676,-0.1808,-0.0569
2025-05-24T06:13:15.472Z,-0.014,0.9757,0.1904,0.134,0.218,0.0866,-0.0773,-0.1867,-0.0563
2025-05-24T06:13:15.482Z,-0.0167,0.983,0.1935,0.1171,0.0071,0.1569,-0.0873,-0.1918,-0.0607
2025-05-24T06:13:15.492Z,-0.0148,0.9738,0.1919,0.1431,-0.0397,0.1249,-0.0896,-0.1591,-0.064
2025-05-24T06:13:15.503Z,-0.0157,0.9611,0.1962,0.1096,0.0589,0.1498,-0.0922,-0.131,-0.0721
2025-05-24T06:13:15.511Z,-0.0193,0.9625,0.2085,0.124,0.1737,0.1042,-0.0969,-0.1276,-0.0736
2025-05-24T06:13:15.522Z,-0.0121,0.9702,0.2063,0.1457,0.1437,0.0033,-0.0948,-0.1248,-0.0729
2025-05-24T06:13:15.531Z,-0.0109,0.9681,0.2041,0.0659,0.0763,0.0405,-0.1009,-0.1211,-0.085
2025-05-24T06:13:15.542Z,-0.0116,0.9641,0.2038,0.0574,0.0927,0.0663,-0.1079,-0.1268,-0.0938
2025-05-24T06:13:15.552Z,-0.014,0.9618,0.2052,0.047,0.1308,0.0832,-0.1165,-0.1293,-0.1021
2025-05-24T06:13:15.561Z,-0.0196,0.963,0.2045,0.0782,0.1491,0.0795,-0.1182,-0.1056,-0.107
2025-05-24T06:13:15.572Z,-0.0188,0.9597,0.2018,0.1146,0.1351,0.0927,-0.1221,-0.0865,-0.1149
2025-05-24T06:13:15.581Z,-0.0171,0.9595,0.2101,0.0963,0.1641,0.1261,-0.1265,-0.0813,-0.1236
2025-05-24T06:13:15.592Z,-0.0114,0.9642,0.2147,0.0636,0.1638,0.0499,-0.1284,-0.0748,-0.1355
2025-05-24T06:13:15.602Z,-0.0119,0.9733,0.214,-0.0048,0.1051,0.0345,-0.1303,-0.0671,-0.1449
2025-05-24T06:13:15.611Z,-0.0183,0.9727,0.2139,0.0001,0.0212,0.0482,-0.1364,-0.052,-0.1536
2025-05-24T06:13:15.621Z,-0.0265,0.9625,0.2093,0.051,0.0342,0.0585,-0.1401,-0.0337,-0.1617
2025-05-24T06:13:15.631Z,-0.0273,0.9595,0.2068,0.1151,0.1327,0.1245,-0.1459,-0.0219,-0.1665
2025-05-24T06:13:15.642Z,-0.0197,0.9664,0.2146,0.0944,0.1471,0.1557,-0.1503,-0.0188,-0.1749
2025-05-24T06:13:15.652Z,-0.0102,0.9699,0.2212,-0.0014,0.0716,0.0827,-0.1556,-0.0539,-0.1898
2025-05-24T06:13:15.661Z,-0.0089,0.9636,0.2173,-0.1162,0.0443,0.0355,-0.155,-0.0557,-0.214
2025-05-24T06:13:15.671Z,-0.0241,0.9602,0.2129,-0.1296,0.1131,0.1105,-0.1629,-0.0604,-0.2385
2025-05-24T06:13:15.681Z,-0.0246,0.9653,0.2125,0.0072,0.1246,0.1565,-0.1721,-0.0503,-0.2458
2025-05-24T06:13:15.691Z,-0.0304,0.973,0.2158,-0.0292,0.0674,0.1671,-0.1734,-0.0248,-0.2553
2025-05-24T06:13:15.702Z,-0.0466,0.9765,0.2173,0.0218,-0.0093,0.1426,-0.1769,0.0102,-0.2606
2025-05-24T06:13:15.711Z,-0.0526,0.9731,0.2072,0.1477,-0.0477,0.1608,-0.1809,0.0646,-0.2613
2025-05-24T06:13:15.721Z,-0.0554,0.9604,0.2042,0.164,-0.0079,0.2791,-0.1927,0.1036,-0.2664
2025-05-24T06:13:15.731Z,-0.0576,0.939,0.206,0.17,0.1274,0.3109,-0.2086,0.11,-0.2802
2025-05-24T06:13:15.742Z,-0.0612,0.9222,0.2057,0.1619,0.3329,0.3284,-0.2241,0.0892,-0.299
2025-05-24T06:13:15.752Z,-0.0682,0.9221,0.2177,0.1708,0.4743,0.3317,-0.2387,0.0629,-0.3065
2025-05-24T06:13:15.761Z,-0.073,0.9303,0.2251,0.2007,0.4505,0.2364,-0.2408,0.0488,-0.3121
2025-05-24T06:13:15.771Z,-0.0641,0.9441,0.2358,0.2174,0.3622,0.1933,-0.2384,0.0472,-0.3057
2025-05-24T06:13:15.781Z,-0.0658,0.9693,0.2661,0.0908,0.2042,0.088,-0.2276,0.0228,-0.2891
2025-05-24T06:13:15.792Z,-0.0786,0.996,0.2894,0.1054,-0.0601,-0.2,-0.2001,0.0056,-0.2676
2025-05-24T06:13:15.802Z,-0.0792,1.0159,0.2934,0.1988,-0.329,-0.3817,-0.1751,0.0235,-0.2491
2025-05-24T06:13:15.811Z,-0.0653,1.0376,0.3014,0.1548,-0.5102,-0.4108,-0.1449,0.0422,-0.233
2025-05-24T06:13:15.821Z,-0.0276,1.0622,0.2944,-0.0278,-0.7492,-0.4731,-0.1306,0.0748,-0.2176
2025-05-24T06:13:15.831Z,-0.0046,1.0531,0.2787,-0.4339,-0.9695,-0.3515,-0.1219,0.109,-0.2179
2025-05-24T06:13:15.842Z,-0.0316,1.0002,0.2755,-0.6132,-0.8268,-0.2144,-0.121,0.1001,-0.2474
2025-05-24T06:13:15.852Z,-0.0293,0.9533,0.2639,-0.3773,-0.2795,-0.162,-0.1154,0.1158,-0.2601
2025-05-24T06:13:15.861Z,-0.0474,0.9441,0.2833,-0.4554,0.1306,-0.0637,-0.0994,0.0869,-0.2662
2025-05-24T06:13:15.871Z,-0.0643,0.9745,0.3021,-0.2486,0.1677,-0.2784,-0.0765,0.1081,-0.2766
2025-05-24T06:13:15.881Z,-0.0249,1.0129,0.2942,-0.2002,-0.1807,-0.4153,-0.0504,0.1799,-0.2828
2025-05-24T06:13:15.891Z,-0.0607,1.0204,0.2884,-0.5786,-0.5284,-0.3275,-0.0383,0.1814,-0.3127
2025-05-24T06:13:15.902Z,-0.0772,0.9945,0.2748,-0.2014,-0.5649,-0.2715,-0.0334,0.2378,-0.315
2025-05-24T06:13:15.911Z,-0.0826,0.9591,0.2762,-0.1567,-0.2777,-0.1404,-0.005,0.3042,-0.3216
2025-05-24T06:13:15.921Z,-0.0903,0.9481,0.2738,-0.0913,0.049,-0.1709,-0.0023,0.3307,-0.3397
2025-05-24T06:13:15.931Z,-0.0588,0.9497,0.2818,-0.1145,0.1327,-0.1333,-0.0156,0.2942,-0.3558
2025-05-24T06:13:15.943Z,-0.0388,0.956,0.2974,-0.6868,0.0261,-0.379,-0.002,0.183,-0.4004
2025-05-24T06:13:15.953Z,-0.0441,0.961,0.2857,-0.6653,-0.0068,-0.2439,-0.0051,0.0857,-0.4538
2025-05-24T06:13:15.961Z,-0.0603,0.9518,0.2601,-0.6653,-0.0068,-0.2439,-0.0152,0.0575,-0.478
2025-05-24T06:13:15.972Z,-0.1191,0.9407,0.2515,0.0431,0.1757,0.0524,-0.0193,0.035,-0.491
2025-05-24T06:13:15.981Z,-0.1514,0.937,0.2561,0.0431,0.1757,0.0524,-0.0094,0.0769,-0.4985
2025-05-24T06:13:15.993Z,-0.1231,0.9482,0.2485,-0.1175,0.0568,0.082,-0.001,0.1386,-0.5094
2025-05-24T06:13:16.003Z,-0.1212,0.9805,0.2633,-0.1544,-0.2904,-0.0685,0.0082,0.0929,-0.5226
2025-05-24T06:13:16.011Z,-0.1227,1.002,0.2601,-0.1544,-0.2904,-0.0685,-0.0064,0.0676,-0.5209
2025-05-24T06:13:16.021Z,-0.1373,0.9921,0.2555,-0.205,-0.4591,-0.0016,-0.0021,0.1245,-0.5276
2025-05-24T06:13:16.031Z,-0.1807,0.9818,0.2692,-0.0597,-0.3505,0.0057,0.0259,0.138,-0.5258
2025-05-24T06:13:16.042Z,-0.1715,0.9728,0.2507,0.0841,-0.1684,0.0991,0.0118,0.1968,-0.5202
2025-05-24T06:13:16.052Z,-0.1384,0.9552,0.2329,-0.3043,-0.0196,0.2037,0.0125,0.252,-0.5411
2025-05-24T06:13:16.061Z,-0.1089,0.9725,0.2662,-0.3043,-0.0196,0.2037,0.0364,0.2523,-0.5854
2025-05-24T06:13:16.072Z,-0.1068,1.0121,0.2744,-0.6924,-0.6438,-0.1724,0.0448,0.2191,-0.6366
2025-05-24T06:13:16.082Z,-0.1251,1.0238,0.2558,-0.5577,-0.7175,-0.006,0.0481,0.2234,-0.6726
2025-05-24T06:13:16.092Z,-0.1496,1.0026,0.2448,-0.3985,-0.5093,0.0856,0.0655,0.25,-0.7
2025-05-24T06:13:16.103Z,-0.1629,0.9942,0.2374,-0.3603,-0.4757,0.1219,0.0865,0.2555,-0.7184
2025-05-24T06:13:16.112Z,-0.1676,1.0085,0.2646,-0.3981,-0.635,-0.2033,0.1214,0.2624,-0.7438
2025-05-24T06:13:16.122Z,-0.1699,1.0199,0.2969,-0.4538,-0.7433,-0.5068,0.1436,0.2654,-0.7789
2025-05-24T06:13:16.132Z,-0.1793,1.0183,0.2955,-0.4342,-0.7318,-0.4857,0.152,0.2897,-0.8182
2025-05-24T06:13:16.142Z,-0.1807,0.997,0.2865,-0.5283,-0.5127,-0.4291,0.161,0.3438,-0.8501
2025-05-24T06:13:16.153Z,-0.1831,0.977,0.2756,-0.5776,-0.3731,-0.3438,0.1605,0.3749,-0.873
2025-05-24T06:13:16.162Z,-0.2048,0.9959,0.2679,-0.4184,-0.6191,-0.2814,0.1701,0.3784,-0.8754
2025-05-24T06:13:16.172Z,-0.2531,1.0489,0.24,-0.0362,-1.1759,-0.008,0.1847,0.3828,-0.8798
2025-05-24T06:13:16.182Z,-0.2745,1.1031,0.217,0.0308,-1.7003,0.1544,0.1989,0.4545,-0.8838
2025-05-24T06:13:16.192Z,-0.2615,1.1297,0.2087,-0.2158,-1.9568,0.1974,0.218,0.5025,-0.8969
2025-05-24T06:13:16.203Z,-0.2366,1.1485,0.2105,-0.5579,-2.1768,0.128,0.2466,0.5088,-0.9164
2025-05-24T06:13:16.212Z,-0.2257,1.1844,0.2167,-0.7231,-2.554,0.0047,0.2788,0.5144,-0.9389
2025-05-24T06:13:16.222Z,-0.2545,1.2137,0.2381,-0.4981,-2.8432,-0.2438,0.2815,0.5106,-0.9587
2025-05-24T06:13:16.231Z,-0.2689,1.2282,0.2133,-0.5453,-2.9938,0.0211,0.3024,0.5715,-0.9756
2025-05-24T06:13:16.242Z,-0.2203,1.2281,0.2129,-1.1584,-2.9953,-0.1206,0.3542,0.6235,-0.9982
2025-05-24T06:13:16.253Z,-0.1693,1.2116,0.2303,-1.7546,-2.8666,-0.2697,0.371,0.6137,-1.0665
2025-05-24T06:13:16.261Z,-0.0978,1.2092,0.2038,-2.646,-2.9171,-0.0936,0.3932,0.5829,-1.1513
2025-05-24T06:13:16.272Z,-0.0153,1.2438,0.2289,-3.448,-3.3144,-0.4531,0.4242,0.5238,-1.2398
2025-05-24T06:13:16.281Z,-0.068,1.2868,0.2442,-2.9931,-3.789,-0.5698,0.4313,0.4294,-1.3699
2025-05-24T06:13:16.292Z,-0.0814,1.3132,0.2168,-3.1199,-4.0344,-0.3818,0.4253,0.512,-1.4586
2025-05-24T06:13:16.302Z,-0.0521,1.2908,0.2137,-3.5314,-3.8217,-0.4301,0.4606,0.6372,-1.5218
2025-05-24T06:13:16.311Z,-0.0214,1.2565,0.2108,-4.0329,-3.5625,-0.4702,0.4916,0.6708,-1.5697
2025-05-24T06:13:16.321Z,0.0499,1.2447,0.2153,-4.8963,-3.54,-0.6154,0.5404,0.6566,-1.6137
2025-05-24T06:13:16.331Z,0.1166,1.2542,0.262,-5.6946,-3.7013,-1.2064,0.5924,0.5932,-1.6748
2025-05-24T06:13:16.342Z,0.166,1.2583,0.3062,-6.2924,-3.7938,-1.6392,0.5885,0.5918,-1.7649
2025-05-24T06:13:16.352Z,0.1691,1.2222,0.2747,-6.4479,-3.4589,-1.3371,0.5873,0.6383,-1.872
2025-05-24T06:13:16.361Z,0.1662,1.1479,0.218,-6.6259,-2.7895,-0.8767,0.5983,0.6807,-1.9617
2025-05-24T06:13:16.372Z,0.1768,1.069,0.1953,-6.8898,-2.1423,-0.8085,0.6017,0.6287,-2.0226
2025-05-24T06:13:16.381Z,0.1158,1.0341,0.2205,-6.3103,-1.9843,-1.1604,0.5838,0.4946,-2.1709
2025-05-24T06:13:16.392Z,-0.0473,1.0729,0.2548,-4.9085,-2.6059,-1.5722,0.5337,0.4811,-2.4556
2025-05-24T06:13:16.402Z,-0.1354,1.196,0.2991,-4.4283,-4.0547,-2.0742,0.4383,0.5879,-2.6987
2025-05-24T06:13:16.411Z,-0.1214,1.3703,0.3003,-4.8707,-5.973,-2.0724,0.3261,0.7658,-2.815
2025-05-24T06:13:16.422Z,-0.0312,1.5723,0.3099,-6.1203,-8.1025,-2.3688,0.2435,0.7817,-2.8477
2025-05-24T06:13:16.431Z,0.1623,1.6924,0.4047,-8.2295,-9.2749,-3.3373,0.1875,0.6501,-2.8851
2025-05-24T06:13:16.442Z,0.2156,1.6544,0.4635,-8.7424,-8.9483,-3.9239,0.0871,0.3824,-3.0531
2025-05-24T06:13:16.452Z,0.2009,1.5408,0.5263,-8.9491,-8.0528,-4.4695,0.084,0.0463,-3.2676
2025-05-24T06:13:16.461Z,0.2895,1.4652,0.4693,-10.0679,-7.5974,-3.8833,0.2454,0.0999,-3.3125
2025-05-24T06:13:16.472Z,0.2704,1.386,0.4383,-9.8026,-6.9892,-3.6298,0.2732,0.1692,-3.2389
2025-05-24T06:13:16.481Z,0.2704,1.386,0.4383,-7.2225,-5.9694,-3.5384,0.0766,-0.0716,-3.2249
2025-05-24T06:13:16.492Z,-0.2833,1.1381,0.4607,-4.783,-5.0583,-3.8829,-0.1842,-0.1662,-3.2021
2025-05-24T06:13:16.502Z,-0.1801,1.1481,0.3395,-6.5799,-5.6676,-2.3735,-0.1711,0.0209,-2.7578
2025-05-24T06:13:16.511Z,-0.103,1.2437,0.3135,-6.4231,-6.4606,-2.515,-0.2567,0.116,-2.2678
2025-05-24T06:13:16.522Z,-0.4653,1.0705,0.2906,-3.7761,-4.8253,-1.898,-0.262,0.0895,-1.9654
2025-05-24T06:13:16.531Z,0.1168,0.9467,0.017,-10.155,-3.6738,0.6783,-0.1038,0.7262,-0.8718
2025-05-24T06:13:16.542Z,0.4918,0.7017,-0.0239,-12.8751,-0.9517,0.6731,0.0106,0.8937,0.5199
2025-05-24T06:13:16.551Z,0.3549,0.3859,0.0527,-11.3824,2.0587,-0.0362,0.0569,0.4578,1.3198
2025-05-24T06:13:16.561Z,0.3286,0.284,0.0578,-11.2111,2.9546,-0.0784,-0.0074,0.2,1.6124
2025-05-24T06:13:16.572Z,0.3682,0.3279,0.1078,-11.4681,2.5645,-0.6565,-0.0817,0.0524,1.7694
2025-05-24T06:13:16.581Z,0.3473,0.4041,0.2239,-11.0651,1.9852,-1.771,-0.083,-0.457,1.9425
2025-05-24T06:13:16.592Z,0.3066,0.4786,0.3102,-10.5224,1.399,-2.3881,-0.0293,-1.2683,2.2613
2025-05-24T06:13:16.601Z,0.2202,0.5655,0.2939,-9.3279,0.7886,-2.0177,-0.0031,-1.8841,2.6274
2025-05-24T06:13:16.611Z,0.0229,0.5931,0.2584,-7.2015,0.8271,-1.487,-0.0119,-2.1874,2.9019
2025-05-24T06:13:16.622Z,-0.0319,0.5784,0.2072,-6.6347,1.1972,-0.8567,0.0405,-2.1982,3.2583
2025-05-24T06:13:16.631Z,-0.0249,0.5734,0.212,-6.3302,1.4767,-0.8734,0.1138,-2.2044,3.6788
2025-05-24T06:13:16.641Z,-0.074,0.6078,0.2709,-5.5359,1.3359,-1.296,0.166,-2.3277,4.044
2025-05-24T06:13:16.651Z,-0.0916,0.7089,0.2739,-5.0108,0.5606,-1.1188,0.2401,-2.3348,4.3665
2025-05-24T06:13:16.661Z,-0.1335,0.8239,0.2565,-4.1459,-0.2662,-0.9014,0.3701,-2.2336,4.644
2025-05-24T06:13:16.672Z,-0.1874,0.9105,0.2695,-3.2255,-0.8243,-0.9605,0.4716,-2.1569,4.8992
2025-05-24T06:13:16.681Z,-0.2009,0.9723,0.3108,-2.6596,-1.1292,-1.3789,0.4752,-2.1616,5.1624
2025-05-24T06:13:16.692Z,-0.2423,1.0193,0.4006,-1.6269,-1.3597,-2.1916,0.4804,-2.1347,5.3779
2025-05-24T06:13:16.701Z,-0.3801,1.0862,0.4244,0.2939,-1.8234,-2.3494,0.6112,-1.7346,5.53
2025-05-24T06:13:16.711Z,-0.4784,1.1783,0.4459,1.6409,-2.5398,-2.6456,0.7242,-1.2177,5.7131
2025-05-24T06:13:16.722Z,-0.4417,1.2856,0.4956,1.7391,-3.4257,-3.1376,0.6803,-0.8468,5.9813
2025-05-24T06:13:16.731Z,-0.3687,1.3835,0.4981,1.6474,-4.1904,-3.1736,0.5726,-0.6011,6.2145
2025-05-24T06:13:16.742Z,-0.3511,1.4316,0.5293,2.1589,-4.5082,-3.5881,0.4525,-0.5773,6.2663
2025-05-24T06:13:16.751Z,-0.3887,1.4702,0.5802,3.1429,-4.8605,-4.0443,0.3106,-0.7342,6.1202
2025-05-24T06:13:16.761Z,-0.4054,1.5699,0.5568,3.8227,-5.9072,-3.7326,0.1749,-0.9112,5.9371
2025-05-24T06:13:16.772Z,-0.423,1.7171,0.5047,4.7035,-7.3386,-3.2727,0.0514,-1.0917,5.8381
2025-05-24T06:13:16.781Z,-0.5514,1.8144,0.4801,6.6033,-8.2376,-3.0089,-0.0413,-1.2305,5.7337
2025-05-24T06:13:16.792Z,-0.7229,1.815,0.4234,8.8766,-8.1859,-2.4655,-0.0146,-1.2193,5.5187
2025-05-24T06:13:16.801Z,-0.9173,1.7278,0.3944,11.2093,-7.3619,-2.2394,0.0225,-0.9588,5.156
2025-05-24T06:13:16.811Z,-0.9963,1.6536,0.3792,12.2303,-6.8373,-2.114,0.0106,-0.6863,4.8141
2025-05-24T06:13:16.822Z,-0.885,1.6807,0.3773,11.3738,-7.3623,-2.1274,-0.0299,-0.6564,4.6976
2025-05-24T06:13:16.831Z,-0.6799,1.769,0.3748,9.8456,-8.3403,-2.1271,-0.0316,-0.9648,4.7892
2025-05-24T06:13:16.843Z,-0.5438,1.7269,0.3496,9.044,-7.842,-1.8934,-0.1535,-1.4578,4.1832
2025-05-24T06:13:16.851Z,-0.502,1.5341,0.3569,9.164,-6.0368,-2.1568,-0.1535,-1.4578,4.1832
2025-05-24T06:13:16.861Z,-0.6381,1.329,0.4593,11.0484,-4.229,-3.0642,-0.3866,-1.3634,3.4071
2025-05-24T06:13:16.873Z,-0.9194,1.2299,0.32,14.1322,-3.5416,-1.4453,-0.2905,-0.5811,2.1885
2025-05-24T06:13:16.881Z,-1.2604,1.1603,0.1393,17.7095,-2.8061,0.2212,-0.2905,-0.5811,2.1885
2025-05-24T06:13:16.893Z,-1.5991,0.9379,0.0322,21.0145,-0.5789,1.2273,-0.4164,0.4659,0.4073
2025-05-24T06:13:16.901Z,-1.7757,0.7189,0.0213,22.4417,1.4622,1.2092,-0.4164,0.4659,0.4073
2025-05-24T06:13:16.911Z,-1.6214,0.6129,0.1356,20.3739,2.3206,0.1142,-0.4032,0.7066,-0.5097
2025-05-24T06:13:16.923Z,-1.1964,0.7096,0.2177,16.0373,1.2,-0.57,-0.4365,0.179,-2.0297
2025-05-24T06:13:16.931Z,-0.8993,0.9302,0.2474,13.2097,-0.8945,-0.7463,-0.4365,0.179,-2.0297
2025-05-24T06:13:16.942Z,-0.7757,1.0988,0.2435,11.9351,-2.3057,-0.6855,-0.4815,-0.5872,-2.7452
2025-05-24T06:13:16.953Z,-0.7474,1.1608,0.2552,11.4803,-2.6919,-0.8071,-0.4957,-0.6751,-2.9107
2025-05-24T06:13:16.961Z,-0.6754,1.1713,0.2466,10.3754,-2.7073,-0.6355,-0.4957,-0.6751,-2.9107
2025-05-24T06:13:16.971Z,-0.5114,1.224,0.2272,8.4267,-3.1679,-0.5177,-0.5559,-0.7098,-3.0431
2025-05-24T06:13:16.982Z,-0.1168,1.3219,0.2556,3.6114,-4.1708,-0.6218,-0.2972,0.8347,-1.4189
2025-05-24T06:13:16.992Z,1.0845,1.6131,0.0323,-9.2212,-7.3146,1.8839,0.0201,1.168,1.2071
2025-05-24T06:13:17.002Z,2.3631,1.9549,-0.1231,-20.119,-10.2996,3.1569,0.3417,-0.6999,2.0491
2025-05-24T06:13:17.011Z,1.4697,1.7997,-0.2354,-8.1276,-8.2865,4.2224,0.3417,-0.6999,2.0491
2025-05-24T06:13:17.023Z,-1.1662,1.4305,-0.1026,11.2727,-5.117,3.7888,-1.1197,-2.4322,-2.969
2025-05-24T06:13:17.032Z,-1.1662,1.4305,-0.1026,14.2632,-5.258,2.5693,-1.5312,-1.2638,-4.2552
2025-05-24T06:13:17.042Z,0.1208,1.8883,0.2777,5.1667,-8.674,0.3334,-1.249,-0.8728,-4.0553
2025-05-24T06:13:17.052Z,0.1208,1.8883,0.2777,1.5544,-9.0394,-0.8407,-0.8128,-1.214,-3.7445
2025-05-24T06:13:17.061Z,-0.0889,1.5602,0.3344,3.4757,-5.4673,-1.3719,-0.9363,-1.3997,-3.4844
2025-05-24T06:13:17.072Z,-0.2528,1.1333,0.3772,4.6493,-1.2267,-1.6204,-1.2601,-1.3278,-3.1958
2025-05-24T06:13:17.081Z,-0.3447,0.7466,0.3226,5.2294,2.4615,-0.9206,-1.1502,-0.7789,-2.9178
2025-05-24T06:13:17.092Z,-0.3675,0.5283,0.2677,5.0948,4.3681,-0.3827,-0.6932,0.0371,-2.612
2025-05-24T06:13:17.102Z,-0.318,0.719,0.3997,4.6527,4.2341,-1.0315,-0.3865,0.4575,-2.1433
2025-05-24T06:13:17.111Z,-0.318,0.719,0.3997,4.1202,2.0193,-1.5736,-0.4401,0.799,-1.3895
2025-05-24T06:13:17.122Z,-0.1971,1.2302,0.3277,2.9353,-1.3123,-0.6626,-0.5038,1.1986,-0.7676
2025-05-24T06:13:17.132Z,-0.1971,1.2302,0.3277,2.9089,-2.5712,-0.8964,-0.3339,1.464,-0.5061
2025-05-24T06:13:17.142Z,-0.1311,1.069,0.321,3.5103,-1.4329,-1.314,-0.1937,1.4549,-0.318
2025-05-24T06:13:17.152Z,-0.1311,1.069,0.321,1.6949,-1.0193,-0.5072,-0.2857,1.2885,-0.213
2025-05-24T06:13:17.161Z,0.0808,1.0495,0.206,-0.3336,-0.8092,0.6576,-0.402,1.201,-0.2976
2025-05-24T06:13:17.173Z,0.1311,1.0297,0.2316,-1.0151,-0.5569,0.987,-0.3562,1.0547,-0.5211
2025-05-24T06:13:17.182Z,0.1406,1.0621,0.2822,-0.7491,-0.7,0.2581,-0.2784,0.7551,-0.7131
2025-05-24T06:13:17.192Z,0.181,1.0511,0.2653,-1.0191,-1.0044,-0.1164,-0.3156,0.4467,-0.8091
2025-05-24T06:13:17.202Z,0.1501,0.9814,0.2843,-1.4578,-0.8225,0.1052,-0.359,0.315,-0.8312
2025-05-24T06:13:17.211Z,0.1501,0.9814,0.2843,-1.1254,-0.1142,-0.1439,-0.2942,0.3409,-0.8145
2025-05-24T06:13:17.222Z,-0.0728,0.9172,0.4079,-0.025,0.373,-0.9119,-0.1748,0.4758,-0.7109
2025-05-24T06:13:17.232Z,-0.1285,0.9374,0.3742,0.8833,0.3923,-1.2411,-0.1365,0.6883,-0.4968
2025-05-24T06:13:17.242Z,-0.1553,0.959,0.2798,1.3228,0.1862,-0.8115,-0.1651,0.9104,-0.2857
2025-05-24T06:13:17.252Z,-0.1287,0.9712,0.2047,1.497,-0.0238,0.1764,-0.1939,1.139,-0.2008
2025-05-24T06:13:17.262Z,-0.0518,0.9883,0.2196,1.0995,-0.1487,0.8306,-0.1882,1.2723,-0.2223
2025-05-24T06:13:17.272Z,0.0243,1.0027,0.2601,0.2684,-0.3293,0.6213,-0.1828,1.1746,-0.2906
2025-05-24T06:13:17.281Z,0.0833,0.9793,0.2993,-0.5235,-0.4491,0.2404,-0.1939,0.9303,-0.3709
2025-05-24T06:13:17.292Z,0.1171,0.9277,0.336,-1.1452,-0.163,-0.1317,-0.1748,0.6932,-0.4602
2025-05-24T06:13:17.302Z,0.1188,0.8945,0.3438,-1.4939,0.3313,-0.45,-0.152,0.5272,-0.573
2025-05-24T06:13:17.311Z,0.1211,0.9028,0.3433,-1.5642,0.6073,-0.4909,-0.1482,0.4866,-0.6918
2025-05-24T06:13:17.322Z,0.0729,0.9297,0.331,-1.6644,0.4807,-0.4751,-0.128,0.5579,-0.8479
2025-05-24T06:13:17.331Z,0.0366,0.9748,0.3186,-1.2112,0.1943,-0.3258,-0.1145,0.5868,-0.9717
2025-05-24T06:13:17.342Z,0.0495,0.9948,0.3,-1.0543,-0.2673,-0.2129,-0.1405,0.61,-1.04
2025-05-24T06:13:17.352Z,0.0433,0.991,0.2748,-1.3169,-0.4195,0.0054,-0.1374,0.5623,-1.0975
2025-05-24T06:13:17.361Z,-0.021,1.02,0.2686,-1.2931,-0.4181,0.241,-0.114,0.5106,-1.1647
2025-05-24T06:13:17.372Z,-0.0399,1.0563,0.27,-0.7897,-0.7561,0.2891,-0.1237,0.551,-1.1954
2025-05-24T06:13:17.381Z,-0.0605,1.0735,0.2802,-0.7995,-1.109,0.266,-0.1058,0.6003,-1.2355
2025-05-24T06:13:17.392Z,-0.0925,1.0783,0.281,-0.6709,-1.2678,0.1745,-0.0644,0.6346,-1.2874
2025-05-24T06:13:17.401Z,-0.0925,1.0783,0.281,-0.5679,-1.3384,0.1685,-0.0314,0.7063,-1.3269
2025-05-24T06:13:17.411Z,-0.1089,1.0783,0.3102,-0.8669,-1.3721,0.0333,-0.0228,0.7418,-1.3906
2025-05-24T06:13:17.422Z,-0.1181,1.0764,0.346,-0.6365,-1.3683,-0.1582,-0.0053,0.8362,-1.4475
2025-05-24T06:13:17.431Z,-0.0853,1.0792,0.4047,-0.79,-1.3829,-0.5875,0.0615,0.9612,-1.4998
2025-05-24T06:13:17.442Z,-0.0703,1.1085,0.4144,-1.2831,-1.4538,-1.1499,0.0868,0.9664,-1.5635
2025-05-24T06:13:17.452Z,-0.0781,1.1528,0.4022,-1.5546,-1.8093,-1.2225,0.0776,0.9563,-1.6287
2025-05-24T06:13:17.461Z,-0.0987,1.1907,0.3714,-1.6468,-2.2737,-1.1224,0.1268,1.0004,-1.6986
2025-05-24T06:13:17.472Z,-0.1241,1.2425,0.2958,-1.6036,-2.6877,-0.8192,0.1472,1.0643,-1.7802
2025-05-24T06:13:17.481Z,-0.1092,1.2999,0.2128,-1.5847,-3.2671,-0.0657,0.1685,1.1115,-1.8606
2025-05-24T06:13:17.492Z,-0.0831,1.3378,0.1542,-1.9735,-3.8588,0.6645,0.1955,1.0799,-1.9429
2025-05-24T06:13:17.502Z,-0.0607,1.3409,0.1044,-2.4062,-4.258,1.1698,0.2186,0.9396,-2.0489
2025-05-24T06:13:17.511Z,-0.0357,1.3148,0.0813,-2.8485,-4.3091,1.5902,0.2674,0.7741,-2.1719
2025-05-24T06:13:17.522Z,-0.0056,1.2999,0.0933,-3.2981,-4.1079,1.7357,0.2976,0.6832,-2.296
2025-05-24T06:13:17.531Z,0.0339,1.3058,0.1633,-3.8442,-4.0662,1.4964,0.3164,0.6686,-2.3959
2025-05-24T06:13:17.542Z,0.0666,1.3222,0.2335,-4.4391,-4.2269,0.7137,0.3269,0.7146,-2.4697
2025-05-24T06:13:17.552Z,0.104,1.3299,0.3018,-4.9887,-4.4864,-0.0139,0.3328,0.847,-2.5185
2025-05-24T06:13:17.561Z,0.1417,1.34,0.3731,-5.5928,-4.6567,-0.7655,0.328,1.0882,-2.5309
2025-05-24T06:13:17.571Z,0.1783,1.3753,0.4068,-6.1954,-4.8808,-1.5287,0.3296,1.4037,-2.519
2025-05-24T06:13:17.581Z,0.2347,1.4459,0.4306,-6.7988,-5.3959,-1.9103,0.3247,1.7976,-2.4576
2025-05-24T06:13:17.592Z,0.2948,1.5349,0.4429,-7.6253,-6.2404,-2.2809,0.2864,2.2277,-2.356
2025-05-24T06:13:17.602Z,0.3206,1.6199,0.3847,-8.4081,-7.2282,-2.4836,0.2342,2.6713,-2.2683
2025-05-24T06:13:17.611Z,0.2817,1.7164,0.2976,-8.8375,-8.1771,-1.998,0.2015,2.9688,-2.2609
2025-05-24T06:13:17.621Z,0.2333,1.852,0.3034,-8.5901,-9.296,-1.3674,0.1701,2.8806,-2.3112
2025-05-24T06:13:17.631Z,0.3035,2.007,0.4755,-8.445,-10.8156,-1.8246,0.1097,2.3953,-2.3912
2025-05-24T06:13:17.642Z,0.4015,2.1242,0.5508,-9.4659,-12.4734,-3.6975,0.1184,1.6596,-2.5593
2025-05-24T06:13:17.652Z,0.4701,2.1452,0.4838,-10.5176,-13.6846,-4.367,0.2904,1.2921,-2.7142
2025-05-24T06:13:17.661Z,0.7865,2.0331,0.4807,-11.6501,-13.9277,-3.6864,0.4045,1.2993,-2.5395
2025-05-24T06:13:17.672Z,0.9129,1.7818,0.5453,-14.9944,-12.8026,-4.0231,0.4084,0.9403,-2.3094
2025-05-24T06:13:17.684Z,0.8567,1.451,0.5018,-15.5114,-7.2292,-4.0942,0.3948,0.2211,-2.1556
2025-05-24T06:13:17.692Z,0.5279,1.1185,0.434,-15.5114,-7.2292,-4.0942,0.3118,-0.3099,-2.4304
2025-05-24T06:13:17.702Z,-0.2215,0.906,0.5147,-11.7398,-4.2039,-3.5764,0.0235,-0.8958,-3.1029
2025-05-24T06:13:17.712Z,-0.4079,0.9666,0.4068,-4.7406,-2.6762,-4.2173,-0.2857,-1.4149,-3.3066
2025-05-24T06:13:17.722Z,-0.2396,1.0178,0.3647,-4.0255,-3.7361,-2.8914,-0.4471,-1.6884,-3.1283
2025-05-24T06:13:17.734Z,-0.5241,0.7758,0.4744,-2.6713,-1.7991,-3.3667,-0.4097,-1.9127,-3.1662
2025-05-24T06:13:17.742Z,-0.4292,0.4731,0.2769,-2.6713,-1.7991,-3.3667,-0.1007,-1.5669,-2.8481
2025-05-24T06:13:17.752Z,-0.0151,0.2695,-0.0506,-4.5374,0.8418,-0.8449,0.1272,-0.8928,-1.7877
2025-05-24T06:13:17.761Z,0.1314,0.1487,-0.1333,-8.4382,2.6238,2.0939,0.2804,-0.7268,-0.2654
2025-05-24T06:13:17.773Z,0.1431,0.1094,-0.1149,-9.5334,4.1015,2.6463,0.3777,-0.9965,1.3662
2025-05-24T06:13:17.784Z,0.1404,0.2115,-0.1128,-9.3657,3.2633,2.7604,0.4072,-1.035,2.7504
2025-05-24T06:13:17.793Z,0.1497,0.2803,-0.139,-9.2441,2.9828,3.0072,0.3668,-0.7319,3.3639
2025-05-24T06:13:17.802Z,0.154,0.2847,-0.1022,-9.2441,2.9828,3.0072,0.3354,-0.4599,3.53
2025-05-24T06:13:17.811Z,0.1758,0.2983,0.0141,-9.0859,3.2264,2.5552,0.3915,-0.5896,3.6365
2025-05-24T06:13:17.822Z,0.1715,0.2968,0.1563,-8.6821,3.6792,0.0666,0.4348,-1.0198,3.7586
2025-05-24T06:13:17.834Z,0.1074,0.2932,0.2249,-7.7487,3.9641,-0.4118,0.46,-1.3769,3.8654
2025-05-24T06:13:17.842Z,0.0496,0.3389,0.2132,-6.8631,3.7126,-0.193,0.4648,-1.4731,4.0929
2025-05-24T06:13:17.852Z,-0.0349,0.4398,0.2,-5.6536,2.983,-0.0325,0.452,-1.4831,4.4628
2025-05-24T06:13:17.861Z,-0.0965,0.5669,0.19,-5.6536,2.983,-0.0325,0.4699,-1.417,4.8871
2025-05-24T06:13:17.873Z,-0.1181,0.6975,0.1437,-4.0783,1.0674,0.6538,0.5172,-1.2369,5.3017
2025-05-24T06:13:17.884Z,-0.1188,0.7888,0.0989,-3.5898,0.5207,1.0451,0.5333,-1.0927,5.6615
2025-05-24T06:13:17.892Z,-0.1184,0.8601,0.1025,-3.0906,0.0796,1.0029,0.5351,-1.1285,5.9313
2025-05-24T06:13:17.902Z,-0.0865,0.9547,0.0901,-2.8514,-0.6193,1.135,0.5889,-1.2244,6.1668
2025-05-24T06:13:17.911Z,-0.0841,1.0688,0.1216,-2.8514,-0.6193,1.135,0.6519,-1.4164,6.3493
2025-05-24T06:13:17.922Z,-0.158,1.228,0.1969,-0.7632,-2.9759,-0.0428,0.7337,-1.5615,6.4724
2025-05-24T06:13:17.933Z,-0.287,1.4225,0.2514,1.1963,-4.7373,-0.6338,0.9066,-1.5398,6.5444
2025-05-24T06:13:17.942Z,-0.4232,1.6129,0.3227,3.138,-6.4648,-1.4246,1.0774,-1.4047,6.6312
2025-05-24T06:13:17.952Z,-0.4909,1.7642,0.361,4.374,-7.8131,-1.8029,1.1267,-1.3142,6.7711
2025-05-24T06:13:17.962Z,-0.5132,1.8784,0.3522,5.3023,-8.8789,-1.8614,1.0497,-1.3508,6.8989
2025-05-24T06:13:17.972Z,-0.6,1.9623,0.4242,6.9413,-9.6883,-2.7639,0.9585,-1.4849,6.8364
2025-05-24T06:13:17.983Z,-0.7529,2.042,0.4967,9.0899,-10.5874,-3.4495,0.9525,-1.5334,6.5325
2025-05-24T06:13:17.992Z,-0.875,2.1808,0.4683,10.8062,-12.0839,-3.278,0.9831,-1.3455,6.1566
2025-05-24T06:13:18.002Z,-0.9283,2.3002,0.5191,11.8235,-13.2802,-4.0347,0.8537,-1.1504,5.8539
2025-05-24T06:13:18.012Z,-0.9592,2.2883,0.6348,12.6451,-13.0836,-5.2241,0.5812,-1.1595,5.5656
2025-05-24T06:13:18.022Z,-0.9904,2.0535,0.693,13.4239,-10.6578,-5.7367,0.3035,-1.3046,5.1613
2025-05-24T06:13:18.033Z,-1.0583,1.6986,0.6353,14.6035,-7.4374,-5.1536,0.1801,-1.2389,4.5245
2025-05-24T06:13:18.042Z,-1.2183,1.4577,0.6204,16.5531,-5.2886,-5.2123,-0.0007,-1.1539,3.6906
2025-05-24T06:13:18.052Z,-1.4059,1.2288,0.5345,18.6614,-3.2281,-3.9183,-0.1379,-1.2766,2.8566
2025-05-24T06:13:18.062Z,-1.704,1.0629,0.1885,22.0227,-1.5945,-0.7137,-0.0815,-1.0789,1.9698
2025-05-24T06:13:18.072Z,-2.2028,0.7379,0.1304,26.9458,1.7266,-0.6297,-0.0192,-0.1925,0.5249
2025-05-24T06:13:18.082Z,-2.423,0.4422,0.3552,28.171,4.4436,-2.7811,-0.2388,0.402,-1.0665
2025-05-24T06:13:18.092Z,-1.8764,0.4533,0.4254,21.9221,3.9596,-3.2412,-0.41,0.5662,-1.913
2025-05-24T06:13:18.101Z,-1.2446,0.7153,0.5083,16.0908,1.4566,-4.1288,-0.4974,0.2277,-2.2864
2025-05-24T06:13:18.111Z,-1.0872,0.9124,0.5761,14.5748,-0.2559,-4.5553,-0.5693,-0.1474,-2.8176
2025-05-24T06:13:18.122Z,-0.996,1.0656,0.5153,13.3304,-1.6023,-3.867,-0.6486,-0.255,-3.3498
2025-05-24T06:13:18.132Z,-0.7719,1.2178,0.4229,10.4596,-3.046,-2.7993,-0.6809,-0.2407,-3.5561
2025-05-24T06:13:18.142Z,-0.1631,1.4477,0.1902,3.6024,-5.381,-0.1361,-0.5392,0.3323,-3.1045
2025-05-24T06:13:18.151Z,1.1252,1.8888,-0.3432,-10.0483,-9.9815,5.1594,-0.127,1.8228,-1.3779
2025-05-24T06:13:18.161Z,2.4805,2.287,-0.3628,-21.4977,-13.2833,4.4597,-0.0701,2.1647,1.5086
2025-05-24T06:13:18.172Z,1.3676,2.0054,0.0567,-6.9037,-9.934,0.22,-0.1864,-0.2419,2.3609
2025-05-24T06:13:18.182Z,-1.0561,1.5689,0.588,15.6897,-5.9713,-5.0512,-1.0515,-3.0602,0.0621
2025-05-24T06:13:18.192Z,-1.7467,1.5555,0.8166,19.5942,-6.4314,-6.1175,-2.1939,-3.7273,-3.1399
2025-05-24T06:13:18.201Z,-0.4641,1.9657,0.0937,5.0404,-10.4145,1.6502,-2.0064,-1.2714,-4.3441
2025-05-24T06:13:18.211Z,0.6109,1.9882,-0.1566,-3.2231,-9.5549,2.5898,-1.0452,0.9687,-3.8384
2025-05-24T06:13:18.222Z,-0.3295,1.3494,0.567,6.2181,-3.0292,-4.392,-0.891,-0.3734,-3.9319
2025-05-24T06:13:18.232Z,-0.488,0.8783,0.5486,5.9046,1.2611,-2.8765,-1.2634,-1.5636,-3.7974
2025-05-24T06:13:18.242Z,-0.1793,0.581,0.099,3.1622,4.1564,1.2694,-1.2258,-1.0414,-3.3011
2025-05-24T06:13:18.251Z,-0.4049,0.3696,0.0518,5.4491,5.9741,1.3949,-0.8175,0.0611,-2.9721
2025-05-24T06:13:18.261Z,-0.5986,0.5128,0.1709,6.6613,4.052,0.3228,-0.511,0.6586,-2.6647
2025-05-24T06:13:18.272Z,-0.4384,0.9717,0.2227,4.6596,-0.5491,-0.1001,-0.5379,0.8042,-1.9678
2025-05-24T06:13:18.282Z,-0.2467,1.3281,0.3172,2.8539,-3.7312,-1.0794,-0.6524,0.7489,-1.0266
2025-05-24T06:13:18.292Z,-0.2154,1.3605,0.456,2.6241,-3.6105,-2.2918,-0.5214,0.725,-0.4115
2025-05-24T06:13:18.301Z,-0.181,1.1503,0.4182,2.0891,-1.5421,-1.627,-0.2525,0.8651,-0.2496
2025-05-24T06:13:18.311Z,-0.0132,1.0329,0.236,0.2984,-0.5238,0.2216,-0.2452,0.9645,-0.2672
2025-05-24T06:13:18.322Z,0.1445,0.9789,0.1304,-1.1647,-0.045,1.0741,-0.4185,0.9804,-0.345
2025-05-24T06:13:18.332Z,0.1603,0.964,0.2155,-1.2331,0.0349,0.1361,-0.4331,0.8724,-0.4475
2025-05-24T06:13:18.342Z,0.1128,0.9888,0.3043,-0.8588,-0.2416,-0.5577,-0.3054,0.6669,-0.5196
2025-05-24T06:13:18.351Z,0.1048,1.0179,0.2493,-0.8792,-0.5061,0.1551,-0.2822,0.5165,-0.5691
2025-05-24T06:13:18.361Z,0.0837,1.0081,0.1752,-0.6614,-0.3699,0.7813,-0.3828,0.4964,-0.6075
2025-05-24T06:13:18.372Z,-0.0036,0.9737,0.2275,0.1556,-0.0307,0.1806,-0.4114,0.5977,-0.6358
2025-05-24T06:13:18.381Z,-0.0748,0.9453,0.3209,0.6938,0.2203,-0.6519,-0.3319,0.7326,-0.602
2025-05-24T06:13:18.392Z,-0.0754,0.9362,0.339,0.577,0.2863,-0.6975,-0.2737,0.8586,-0.4782
2025-05-24T06:13:18.401Z,-0.0455,0.9274,0.2889,0.2055,0.3646,-0.1527,-0.3087,1.0261,-0.3506
2025-05-24T06:13:18.411Z,-0.0056,0.9292,0.2692,-0.2484,0.3175,-0.0171,-0.3276,1.2204,-0.3007
2025-05-24T06:13:18.422Z,0.0175,0.9432,0.2966,-0.5213,0.1541,-0.2829,-0.2774,1.2219,-0.3382
2025-05-24T06:13:18.431Z,0.0553,0.9642,0.3101,-1.0064,-0.0616,-0.3479,-0.2519,1.0132,-0.3788
2025-05-24T06:13:18.442Z,0.0971,0.9777,0.291,-1.3974,-0.1768,-0.1313,-0.2711,0.7843,-0.3964
2025-05-24T06:13:18.451Z,0.0668,0.9707,0.2874,-1.1017,-0.0986,-0.1022,-0.2775,0.6044,-0.4573
2025-05-24T06:13:18.461Z,0.0266,0.9621,0.2922,-0.8152,-0.0424,-0.1009,-0.2558,0.5276,-0.5638
2025-05-24T06:13:18.472Z,0.0213,0.9702,0.2792,-0.8603,-0.1518,0.0332,-0.252,0.5838,-0.6711
2025-05-24T06:13:18.482Z,0.0044,0.989,0.2965,-0.7471,-0.3389,-0.1512,-0.2461,0.564,-0.7836
2025-05-24T06:13:18.492Z,-0.0194,1.0014,0.3083,-0.6473,-0.4727,-0.2051,-0.2361,0.532,-0.8682
2025-05-24T06:13:18.501Z,-0.0217,1.0065,0.2863,-0.7108,-0.5257,0.0272,-0.2292,0.4681,-0.9098
2025-05-24T06:13:18.511Z,-0.0562,1.0011,0.2699,-0.4347,-0.4795,0.224,-0.2339,0.4343,-0.9608
2025-05-24T06:13:18.522Z,-0.092,0.9926,0.2394,-0.2531,-0.412,0.5405,-0.2488,0.4885,-1.0356
2025-05-24T06:13:18.531Z,-0.0651,0.9846,0.2399,-0.7122,-0.3645,0.465,-0.2768,0.5865,-1.0861
2025-05-24T06:13:18.542Z,-0.0239,0.9795,0.2874,-1.2034,-0.3326,0.0193,-0.2695,0.6807,-1.1229
2025-05-24T06:13:18.551Z,-0.0141,0.9837,0.3276,-1.4021,-0.4364,-0.3679,-0.2366,0.7117,-1.1792
2025-05-24T06:13:18.561Z,-0.0197,1.0238,0.3571,-1.4562,-0.9038,-0.6139,-0.2195,0.7071,-1.2444
2025-05-24T06:13:18.572Z,-0.0534,1.0967,0.3533,-1.2443,-1.6696,-0.5418,-0.2104,0.7625,-1.3133
2025-05-24T06:13:18.581Z,-0.0534,1.0967,0.3533,-0.9292,-2.3109,-0.3949,-0.176,0.899,-1.3735
2025-05-24T06:13:18.592Z,-0.1588,1.185,0.3546,-0.519,-2.4962,-0.6015,-0.1445,1.0637,-1.4331
2025-05-24T06:13:18.602Z,-0.1714,1.1841,0.3419,-0.6548,-2.5276,-0.449,-0.0821,1.211,-1.4622
2025-05-24T06:13:18.611Z,-0.1447,1.1763,0.3362,-1.0858,-2.4649,-0.4702,-0.048,1.3208,-1.5006
2025-05-24T06:13:18.621Z,-0.1353,1.1625,0.3395,-1.3573,-2.3898,-0.4976,-0.0275,1.3696,-1.5642
2025-05-24T06:13:18.631Z,-0.101,1.1675,0.3176,-1.9014,-2.4965,-0.3187,0.03,1.389,-1.6158
2025-05-24T06:13:18.643Z,-0.0825,1.1889,0.2938,-2.2435,-2.7836,-0.1123,0.0946,1.2437,-1.7759
2025-05-24T06:13:18.652Z,-0.057,1.2286,0.2459,-2.7169,-3.2371,0.3347,0.0946,1.2437,-1.7759
2025-05-24T06:13:18.661Z,-0.0292,1.2634,0.1872,-3.1516,-3.6293,0.8503,0.1613,1.126,-1.8986
2025-05-24T06:13:18.671Z,-0.0266,1.2944,0.1302,-3.3989,-3.9925,1.3753,0.1705,0.9444,-2.0784
2025-05-24T06:13:18.681Z,-0.009,1.3143,0.0931,-3.7888,-4.2578,1.607,0.1906,0.8001,-2.2746
2025-05-24T06:13:18.693Z,-0.0017,1.3405,0.1224,-4.0707,-4.6277,1.2265,0.1945,0.7887,-2.615
2025-05-24T06:13:18.702Z,-0.0085,1.3677,0.1743,-4.2486,-4.9858,0.6433,0.1945,0.7887,-2.615
2025-05-24T06:13:18.711Z,0,1.3922,0.2509,-4.6247,-5.3547,-0.1997,0.1882,0.9661,-2.6925
2025-05-24T06:13:18.723Z,0.0318,1.4142,0.3373,-5.1894,-5.6793,-1.1151,0.1466,1.6714,-2.6293
2025-05-24T06:13:18.731Z,0.0641,1.4303,0.3793,-5.779,-5.9568,-1.5204,0.1466,1.6714,-2.6293
2025-05-24T06:13:18.743Z,0.1276,1.4588,0.3506,-6.7037,-6.4021,-1.3588,0.197,2.756,-2.2918
2025-05-24T06:13:18.752Z,0.2336,1.5204,0.3355,-8.0151,-7.1523,-1.3782,0.2398,3.2519,-1.988
2025-05-24T06:13:18.761Z,0.3398,1.5949,0.2699,-9.1943,-7.9745,-0.8299,0.2398,3.2519,-1.988
2025-05-24T06:13:18.773Z,0.3308,1.6488,0.1372,-9.0817,-8.5732,0.2028,0.1374,3.444,-1.927
2025-05-24T06:13:18.781Z,0.1665,1.6923,0.1424,-7.6167,-9.1741,-0.3385,0.1374,3.444,-1.927
2025-05-24T06:13:18.793Z,0.137,1.8089,0.416,-7.9071,-10.5578,-3.3936,0.0554,1.3153,-2.1685
2025-05-24T06:13:18.801Z,0.4131,2.0016,0.6466,-10.9508,-12.6368,-5.4318,0.0554,1.3153,-2.1685
2025-05-24T06:13:18.811Z,0.5883,2.1644,0.6741,-12.5396,-14.214,-5.5577,0.1952,0.4403,-2.1505
2025-05-24T06:13:18.822Z,0.8229,1.9229,0.6708,-14.266,-13.9204,-5.3213,0.3511,0.3333,-2.0194
2025-05-24T06:13:18.832Z,0.8229,1.9229,0.6708,-14.9284,-11.6479,-5.6373,0.1375,-0.4715,-2.2642
2025-05-24T06:13:18.842Z,0.6867,1.604,0.5905,-13.6038,-8.6583,-4.7064,-0.0953,-1.1435,-3.006
2025-05-24T06:13:18.852Z,0.3292,1.2697,0.5869,-9.9346,-5.6322,-4.8373,-0.0649,-1.3104,-3.532
2025-05-24T06:13:18.861Z,0.0157,1.0966,0.5548,-7.8531,-4.6807,-4.0209,-0.0649,-1.3104,-3.532
2025-05-24T06:13:18.873Z,-0.2913,1.1026,0.4148,-8.688,-6.2264,-3.212,0.098,-1.1051,-3.6339
2025-05-24T06:13:18.882Z,-0.2913,1.1026,0.4148,-4.8289,-4.8695,-2.6052,0.2857,-0.6195,-3.1749
2025-05-24T06:13:18.892Z,-0.062,0.8659,0.1555,-8.1894,-2.7966,0.2006,0.497,0.0005,-2.0084
2025-05-24T06:13:18.902Z,0.3967,0.5782,-0.0686,-12.2321,0.0715,1.9216,0.681,-0.1381,-0.7173
2025-05-24T06:13:18.912Z,0.3322,0.1897,-0.0199,-11.1529,3.8521,1.427,0.8241,-0.668,0.4679
2025-05-24T06:13:18.922Z,0.0791,-0.0525,-0.0614,-9.0725,6.377,1.2334,0.8859,-0.735,1.6916
2025-05-24T06:13:18.932Z,0.0791,-0.0525,-0.0614,-8.8264,5.7735,2.0194,0.8625,-0.6028,2.6777
2025-05-24T06:13:18.943Z,-0.0777,0.3611,0.0468,-7.8158,3.4982,1.98,0.8351,-0.4458,3.0843
2025-05-24T06:13:18.952Z,0.0587,0.3908,0.1369,-6.9797,2.35,0.6658,0.795,-0.2653,3.3633
2025-05-24T06:13:18.961Z,0.0587,0.3908,0.1369,-8.2094,2.4463,-0.2146,0.7807,-0.4153,3.6086
2025-05-24T06:13:18.973Z,0.1858,0.3104,0.3531,-8.6466,3.1715,-1.2576,0.7676,-0.9384,3.8807
2025-05-24T06:13:18.982Z,0.1858,0.3104,0.3531,-8.8421,3.7928,-2.3278,0.7468,-1.6169,4.1793
2025-05-24T06:13:18.992Z,0.2175,0.4156,0.4271,-8.9373,3.7858,-2.809,0.7201,-2.2294,4.4721
2025-05-24T06:13:19.002Z,0.2175,0.4156,0.4271,-8.3386,3.2207,-2.7496,0.6926,-2.529,4.7346
2025-05-24T06:13:19.011Z,0.1539,0.5175,0.3948,-7.2549,2.5042,-2.316,0.6926,-2.529,4.7346
2025-05-24T06:13:19.022Z,-0.0185,0.7484,0.3869,-5.8151,1.6819,-2.0707,0.7451,-2.7118,5.1887
2025-05-24T06:13:19.033Z,-0.0185,0.7484,0.3869,-4.748,0.8059,-2.1383,0.8048,-2.9132,5.4582
2025-05-24T06:13:19.042Z,-0.126,0.9858,0.4399,-4.1955,-0.0732,-2.553,0.8437,-2.938,5.6518
2025-05-24T06:13:19.051Z,-0.2389,1.1393,0.4327,-2.5089,-1.025,-2.4793,0.8667,-2.6865,5.8189
2025-05-24T06:13:19.062Z,-0.3317,1.2967,0.4781,-0.8758,-2.3318,-2.4633,0.9421,-2.3275,5.9975
2025-05-24T06:13:19.072Z,-0.3654,1.406,0.5521,0.5805,-3.6479,-2.9628,1.0743,-1.9543,6.2252
2025-05-24T06:13:19.083Z,-0.3654,1.406,0.5521,1.4812,-4.4969,-3.7722,1.1735,-1.5218,6.4286
2025-05-24T06:13:19.092Z,-0.518,1.6845,0.7355,2.6573,-5.6147,-4.6664,1.1452,-1.0828,6.5047
2025-05-24T06:13:19.102Z,-0.6524,1.7763,0.8654,4.3684,-7.0309,-5.8013,1.0016,-0.7964,6.3985
2025-05-24T06:13:19.112Z,-0.7836,1.823,0.9467,6.3199,-7.7927,-7.1682,0.8103,-0.5662,6.1593
2025-05-24T06:13:19.122Z,-0.9151,1.8586,0.9108,8.1998,-8.2316,-7.9074,0.6108,-0.2186,5.8558
2025-05-24T06:13:19.132Z,-0.9151,1.8586,0.9108,10.0459,-8.5966,-7.4883,0.3469,0.1948,5.5585
2025-05-24T06:13:19.142Z,-1.0889,1.8623,0.7109,11.6357,-8.8542,-6.5056,0.0351,0.4922,5.324
2025-05-24T06:13:19.152Z,-1.1192,1.7917,0.6159,12.6342,-8.6744,-5.5261,-0.1557,0.6334,5.1226
2025-05-24T06:13:19.162Z,-1.1947,1.7015,0.495,13.4431,-8.0482,-4.5557,-0.203,0.6869,4.8849
2025-05-24T06:13:19.172Z,-1.2761,1.6119,0.3642,14.6441,-7.2911,-3.2886,-0.2246,0.7926,4.5929
2025-05-24T06:13:19.182Z,-1.2761,1.6119,0.3642,15.8483,-6.5458,-2.0237,-0.3314,0.6566,4.2718
2025-05-24T06:13:19.192Z,-1.2442,1.3182,0.3243,16.461,-5.5082,-1.6553,-0.478,0.4299,3.783
2025-05-24T06:13:19.202Z,-1.2375,1.147,0.3587,16.0407,-3.8257,-1.703,-0.5467,0.1665,3.0973
2025-05-24T06:13:19.211Z,-1.3747,1.0637,0.2721,16.4035,-2.3743,-1.8552,-0.5154,0.0096,2.328
2025-05-24T06:13:19.222Z,-1.5625,1.0067,0.1815,18.0518,-1.7461,-0.8941,-0.4995,-0.0432,1.4736
2025-05-24T06:13:19.232Z,-1.696,0.8799,0.0848,20.0043,-1.1783,0.0097,-0.5625,0.0067,0.519
2025-05-24T06:13:19.242Z,-1.669,0.7427,0.0213,21.168,0.1049,1.0288,-0.6299,0.1344,-0.4389
2025-05-24T06:13:19.252Z,-1.5378,0.6971,0.0665,20.6741,1.4152,1.5756,-0.6046,0.1551,-1.3101
2025-05-24T06:13:19.261Z,-1.3201,0.8184,0.1299,19.1307,1.7157,1.1286,-0.5482,-0.1356,-2.0207
2025-05-24T06:13:19.272Z,-1.1109,0.9554,0.1986,16.7962,0.4921,0.5105,-0.5923,-0.4904,-2.5566
2025-05-24T06:13:19.282Z,-0.9843,1.1566,0.194,14.5289,-0.7604,-0.0638,-0.5668,-0.8846,-3.056
2025-05-24T06:13:19.292Z,-0.8225,1.3673,0.1957,13.2286,-2.7238,0.039,-0.5542,-1.0573,-3.3408
2025-05-24T06:13:19.302Z,0.0709,1.6111,-0.2063,10.8547,-4.6293,0.1097,-0.2042,-0.0863,-2.6834
2025-05-24T06:13:19.311Z,2.0355,2.059,-0.7813,0.5219,-7.182,4.989,0.1166,1.6756,-0.1449
2025-05-24T06:13:19.322Z,3.0177,2.2134,-0.4195,-19.2038,-11.642,9.5593,0.22,1.1588,2.9531
2025-05-24T06:13:19.332Z,0.7748,1.7943,-0.2323,-25.1103,-12.4704,5.7453,0.2312,-1.9207,2.6436
2025-05-24T06:13:19.342Z,-1.6292,1.3794,0.2061,-0.0657,-8.0511,3.8275,-1.028,-4.0204,-0.8555
2025-05-24T06:13:19.352Z,-1.2639,1.5171,0.3176,20.6901,-4.3966,-0.6546,-1.8857,-3.2314,-3.6521
2025-05-24T06:13:19.361Z,0.3879,1.9198,0.153,13.6065,-6.4052,-0.8373,-1.6471,-0.9037,-3.9868
2025-05-24T06:13:19.372Z,0.203,1.7854,0.5582,-1.8677,-9.8915,0.3198,-1.0401,-0.7513,-3.9505
2025-05-24T06:13:19.382Z,-0.4005,1.4022,0.8154,1.8048,-7.8106,-3.9443,-0.7372,-1.7885,-4.1446
2025-05-24T06:13:19.392Z,-0.1927,1.1058,0.5015,6.1231,-4.0742,-5.7084,-0.8256,-1.8902,-3.9294
2025-05-24T06:13:19.401Z,-0.3149,0.7471,0.2162,3.721,-1.0757,-2.2515,-0.9352,-1.227,-3.6451
2025-05-24T06:13:19.411Z,-0.5168,0.4723,0.1557,5.0285,2.5104,0.3026,-0.734,-0.18,-3.4391
2025-05-24T06:13:19.422Z,-0.5347,0.4747,0.2249,6.5074,4.9838,0.755,-0.4009,0.5961,-3.0965
2025-05-24T06:13:19.432Z,-0.3664,0.778,0.279,6.1346,4.5672,0.0522,-0.3053,0.9071,-2.3344
2025-05-24T06:13:19.442Z,-0.2805,1.1057,0.3473,4.1765,1.3946,-0.3938,-0.3839,0.8852,-1.3791
2025-05-24T06:13:19.452Z,-0.3437,1.2799,0.4103,3.4476,-1.6714,-1.0919,-0.3103,0.8474,-0.5566
2025-05-24T06:13:19.461Z,-0.3728,1.2771,0.3428,4.0737,-3.1873,-1.5609,-0.1231,0.8643,-0.1131
2025-05-24T06:13:19.472Z,-0.1857,1.1521,0.1878,4.1345,-2.9162,-0.7227,-0.1642,0.95,0.0082
2025-05-24T06:13:19.482Z,0.0633,1.0469,0.0839,2.036,-1.6933,0.85,-0.3598,1.0433,-0.0435
2025-05-24T06:13:19.492Z,0.1519,0.976,0.1567,-0.3158,-0.696,1.7437,-0.4063,0.8815,-0.1119
2025-05-24T06:13:19.502Z,0.1628,0.9753,0.3051,-1.0176,-0.0881,0.8433,-0.2806,0.5598,-0.085
2025-05-24T06:13:19.511Z,0.1728,0.9959,0.3409,-1.1653,-0.152,-0.5008,-0.1845,0.3922,-0.0457
2025-05-24T06:13:19.522Z,0.0847,0.9773,0.2952,-1.1782,-0.3308,-0.6892,-0.2169,0.4995,-0.1568
2025-05-24T06:13:19.531Z,0.0152,0.9423,0.289,-0.2988,-0.1099,-0.199,-0.2687,0.8429,-0.348
2025-05-24T06:13:19.542Z,-0.0023,0.9175,0.3337,0.2446,0.2272,-0.1957,-0.2281,1.1729,-0.4092
2025-05-24T06:13:19.552Z,0.0065,0.8969,0.3597,0.3214,0.4503,-0.6311,-0.1742,1.321,-0.3168
2025-05-24T06:13:19.561Z,0.0637,0.8607,0.3013,0.1145,0.6602,-0.7747,-0.1683,1.4415,-0.2633
2025-05-24T06:13:19.572Z,0.1308,0.8465,0.2604,-0.5625,1.0178,-0.1258,-0.1839,1.4385,-0.311
2025-05-24T06:13:19.581Z,0.1811,0.8841,0.3081,-1.2646,1.0942,0.1769,-0.156,1.1887,-0.3096
2025-05-24T06:13:19.593Z,0.2053,0.9619,0.345,-2.0124,-0.1258,-0.6021,-0.1141,0.8589,-0.2794
2025-05-24T06:13:19.602Z,0.1598,1.021,0.3226,-2.0124,-0.1258,-0.6021,-0.0966,0.6667,-0.341
2025-05-24T06:13:19.611Z,0.1136,1.0379,0.2966,-1.5685,-0.6553,-0.339,-0.1011,0.7382,-0.4907
2025-05-24T06:13:19.622Z,0.0969,1.0226,0.2534,-1.1884,-0.5932,0.3442,-0.084,0.9103,-0.6939
2025-05-24T06:13:19.631Z,0.1118,1.0019,0.2608,-1.1884,-0.5932,0.3442,-0.0911,0.9244,-0.897
2025-05-24T06:13:19.643Z,0.113,1.0066,0.2833,-1.5575,-0.5047,0.0235,-0.1186,0.7797,-1.1054
2025-05-24T06:13:19.652Z,0.0936,1.024,0.2952,-1.5224,-0.6929,-0.0975,-0.119,0.6232,-1.247
2025-05-24T06:13:19.661Z,0.0513,1.0375,0.306,-1.5224,-0.6929,-0.0975,-0.0802,0.4428,-1.3021
2025-05-24T06:13:19.673Z,-0.0362,1.0151,0.2824,-0.4589,-0.5638,0.1071,-0.0646,0.3631,-1.3527
2025-05-24T06:13:19.681Z,-0.0758,0.985,0.257,-0.4589,-0.5638,0.1071,-0.0884,0.467,-1.3807
2025-05-24T06:13:19.693Z,-0.0866,0.9913,0.28,-0.3282,-0.4371,0.0401,-0.0698,0.6493,-1.3704
2025-05-24T06:13:19.702Z,-0.0941,1.0295,0.3047,-0.3995,-0.854,-0.1791,-0.0394,0.7349,-1.3674
2025-05-24T06:13:19.711Z,-0.0929,1.0703,0.3004,-0.3995,-0.854,-0.1791,-0.0212,0.8228,-1.3854
2025-05-24T06:13:19.722Z,-0.0737,1.0818,0.3064,-0.9656,-1.3591,-0.2351,0.0041,0.9299,-1.4459
2025-05-24T06:13:19.731Z,-0.0324,1.081,0.3253,-0.9656,-1.3591,-0.2351,0.0429,0.9641,-1.5252
2025-05-24T06:13:19.742Z,-0.0227,1.0753,0.3591,-1.7567,-1.3417,-0.8001,0.0378,0.8967,-1.6267
2025-05-24T06:13:19.752Z,-0.0273,1.0904,0.3562,-1.9042,-1.5752,-0.7395,0.0558,0.8387,-1.7124
2025-05-24T06:13:19.761Z,-0.0658,1.1337,0.3371,-1.9042,-1.5752,-0.7395,0.0845,0.7766,-1.8059
2025-05-24T06:13:19.772Z,-0.1438,1.1741,0.2923,-1.091,-2.4665,-0.1091,0.071,0.7835,-1.8953
2025-05-24T06:13:19.782Z,-0.1605,1.1951,0.2426,-1.1891,-2.7019,0.292,0.0864,0.8891,-1.9494
2025-05-24T06:13:19.792Z,-0.1641,1.2109,0.2256,-1.37,-2.9315,0.4219,0.1303,0.9322,-2.0162
2025-05-24T06:13:19.802Z,-0.1253,1.2454,0.193,-2.0303,-3.3357,0.6938,0.1425,0.8977,-2.1031
2025-05-24T06:13:19.812Z,-0.0706,1.2708,0.1739,-2.7347,-3.6324,0.841,0.1706,0.8374,-2.2085
2025-05-24T06:13:19.822Z,-0.0802,1.2791,0.1438,-2.8099,-3.7722,1.1048,0.2023,0.7177,-2.3555
2025-05-24T06:13:19.832Z,-0.0898,1.272,0.1314,-2.9967,-3.7744,1.1043,0.2225,0.6056,-2.4936
2025-05-24T06:13:19.842Z,-0.0751,1.2573,0.1871,-3.3812,-3.7339,0.4607,0.2306,0.5896,-2.5927
2025-05-24T06:13:19.852Z,-0.0721,1.2503,0.268,-3.6461,-3.7927,-0.4054,0.2295,0.6633,-2.6602
2025-05-24T06:13:19.861Z,-0.0648,1.2692,0.36,-3.9746,-4.1235,-1.3539,0.2222,0.7988,-2.6896
2025-05-24T06:13:19.872Z,-0.0355,1.3074,0.4373,-4.5311,-4.6374,-2.1562,0.1907,1.0419,-2.6815
2025-05-24T06:13:19.881Z,0.0035,1.3524,0.4781,-5.1878,-5.2119,-2.5851,0.1759,1.4169,-2.6667
2025-05-24T06:13:19.892Z,0.0743,1.409,0.4929,-6.1731,-5.9241,-2.8575,0.1782,1.8316,-2.6111
2025-05-24T06:13:19.901Z,0.1745,1.493,0.5256,-7.3978,-6.9055,-3.3262,0.1779,2.2372,-2.4517
2025-05-24T06:13:19.911Z,0.2644,1.5976,0.5194,-8.4617,-8.0646,-3.3104,0.138,2.6921,-2.2214
2025-05-24T06:13:19.922Z,0.2784,1.6945,0.4252,-8.6587,-9.1051,-2.544,0.1226,3.1564,-2.0485
2025-05-24T06:13:19.931Z,0.239,1.7856,0.3581,-8.5466,-10.136,-2.25,0.1754,3.2992,-1.9793
2025-05-24T06:13:19.942Z,0.3054,1.8797,0.5017,-9.4545,-11.1648,-4.0253,0.1409,2.5867,-1.9547
2025-05-24T06:13:19.952Z,0.3082,1.9546,0.6012,-9.4531,-12.0091,-4.7835,0.0742,1.4654,-2.1476
2025-05-24T06:13:19.961Z,0.2336,2,0.5311,-9.0763,-12.5826,-4.1514,0.0443,0.9262,-2.5576
2025-05-24T06:13:19.972Z,0.4486,1.9902,0.4477,-11.7787,-12.535,-3.4546,0.363,1.0771,-2.6758
2025-05-24T06:13:19.981Z,0.6808,1.818,0.5102,-13.7754,-10.7908,-4.3826,0.4417,1.0533,-2.6479
2025-05-24T06:13:19.992Z,0.551,1.5105,0.6388,-12.4577,-7.9385,-5.6093,0.1349,0.3911,-2.8741
2025-05-24T06:13:20.001Z,0.288,1.2043,0.6869,-9.9821,-5.2654,-5.9058,-0.2255,-0.2087,-3.3192
2025-05-24T06:13:20.011Z,0.0778,1.0802,0.5831,-8.4458,-4.672,-4.7449,-0.2641,-0.327,-3.3909
2025-05-24T06:13:20.022Z,-0.0195,1.1368,0.563,-7.3337,-5.3761,-4.5874,-0.1845,-0.3468,-3.2694
2025-05-24T06:13:20.031Z,-0.2678,1.0053,0.3912,-5.5836,-4.1248,-2.4936,-0.0106,-0.5784,-3.127
2025-05-24T06:13:20.042Z,0.1248,0.8115,-0.0016,-9.9997,-2.3602,1.3247,0.1251,-0.0801,-2.2098
2025-05-24T06:13:20.051Z,0.3632,0.5493,-0.1609,-11.6562,0.3162,2.4795,0.1806,0.2334,-0.886
2025-05-24T06:13:20.061Z,0.1553,0.2134,-0.0999,-9.4545,3.588,1.8024,0.2056,-0.2484,0.283
2025-05-24T06:13:20.072Z,0.1039,0.0569,-0.0815,-9.2451,4.9197,1.817,0.2166,-0.6,1.3891
2025-05-24T06:13:20.081Z,0.1945,0.1161,-0.1242,-9.8156,4.4013,2.1254,0.2233,-0.492,2.1789
2025-05-24T06:13:20.092Z,0.0855,0.2133,0.0002,-8.5619,3.6265,0.7985,0.1917,-0.4647,2.3808
2025-05-24T06:13:20.101Z,0.1423,0.3248,0.1227,-9.2474,2.7226,-0.2657,0.1551,-0.5808,2.4831
2025-05-24T06:13:20.111Z,0.2536,0.4025,0.2116,-9.9898,2.2684,-1.0779,0.0967,-0.972,2.688
2025-05-24T06:13:20.121Z,0.2485,0.4102,0.3031,-9.6849,2.4504,-1.7785,0.0421,-1.6251,2.9932
2025-05-24T06:13:20.131Z,0.2119,0.4203,0.3041,-9.0077,2.5782,-1.5252,0.0476,-2.1597,3.3575
2025-05-24T06:13:20.142Z,0.1331,0.4402,0.2406,-7.925,2.646,-0.6995,0.0724,-2.383,3.711
2025-05-24T06:13:20.151Z,0.0558,0.4578,0.1784,-6.8439,2.7197,0.0149,0.0909,-2.3949,4.026
2025-05-24T06:13:20.161Z,-0.0059,0.5156,0.1569,-5.9156,2.3594,0.3145,0.1125,-2.3761,4.3357
2025-05-24T06:13:20.172Z,-0.0277,0.6165,0.1537,-5.3281,1.6124,0.4698,0.1385,-2.2959,4.6711
2025-05-24T06:13:20.181Z,-0.0534,0.7389,0.1428,-4.6004,0.6702,0.6778,0.1959,-2.1375,5.0064
2025-05-24T06:13:20.192Z,-0.0949,0.8659,0.1436,-3.6982,-0.283,0.6819,0.2815,-1.9976,5.3374
2025-05-24T06:13:20.201Z,-0.1593,0.9786,0.1842,-2.5265,-1.1242,0.3603,0.3748,-1.9611,5.6146
2025-05-24T06:13:20.211Z,-0.2114,1.0793,0.1771,-1.4571,-1.8421,0.5012,0.4376,-1.7822,5.8797
2025-05-24T06:13:20.222Z,-0.3113,1.1608,0.1524,0.1397,-2.4378,0.7256,0.4811,-1.2748,6.0886
2025-05-24T06:13:20.231Z,-0.3797,1.2773,0.1848,1.275,-3.4616,0.2517,0.5602,-0.7787,6.3158
2025-05-24T06:13:20.242Z,-0.3382,1.4164,0.266,1.4294,-4.6436,-0.5675,0.6828,-0.4478,6.5974
2025-05-24T06:13:20.251Z,-0.3289,1.5263,0.3302,2.1066,-5.581,-1.2859,0.7336,-0.2416,6.8017
2025-05-24T06:13:20.261Z,-0.3934,1.624,0.4086,3.4291,-6.4611,-2.1226,0.6772,-0.3095,6.8265
2025-05-24T06:13:20.272Z,-0.4694,1.7238,0.4798,4.8205,-7.4353,-2.8432,0.567,-0.5389,6.6678
2025-05-24T06:13:20.281Z,-0.5453,1.8574,0.5194,6.1899,-8.8124,-3.2179,0.4666,-0.6696,6.4161
2025-05-24T06:13:20.292Z,-0.6682,2.0054,0.5015,8.0881,-10.2839,-3.0133,0.4045,-0.7006,6.1059
2025-05-24T06:13:20.301Z,-0.8462,2.1051,0.4444,10.378,-11.2682,-2.5127,0.3363,-0.7661,5.7455
2025-05-24T06:13:20.311Z,-1.0131,2.1338,0.4367,12.5098,-11.5515,-2.5422,0.2097,-0.9193,5.2983
2025-05-24T06:13:20.322Z,-1.1438,2.081,0.4539,14.1263,-11.0713,-2.7441,0.1268,-1.0074,4.7852
2025-05-24T06:13:20.331Z,-1.1922,1.9464,0.4629,14.9566,-9.7474,-2.8663,0.0973,-1.0818,4.2952
2025-05-24T06:13:20.342Z,-1.2068,1.7272,0.4702,15.4172,-7.6554,-2.9748,0.0036,-1.4515,3.8706
2025-05-24T06:13:20.351Z,-1.2212,1.4594,0.4765,15.9553,-5.0912,-3.1394,-0.1425,-1.8482,3.3949
2025-05-24T06:13:20.361Z,-1.3356,1.1719,0.5076,17.455,-2.4487,-3.3742,-0.3324,-2.0115,2.6601
2025-05-24T06:13:20.372Z,-1.548,1.0077,0.3456,19.7809,-1.0493,-1.6693,-0.3078,-1.7444,1.7857
2025-05-24T06:13:20.381Z,-1.7959,0.8861,0.2328,22.2179,0.1499,-0.8053,-0.2156,-1.085,0.6296
2025-05-24T06:13:20.392Z,-1.9465,0.7574,0.2638,23.3929,1.4119,-1.1744,-0.2898,-0.5441,-0.5757
2025-05-24T06:13:20.401Z,-1.8271,0.6784,0.3246,21.7235,2.1429,-1.7907,-0.4699,-0.3501,-1.4861
2025-05-24T06:13:20.411Z,-1.5611,0.6906,0.4089,19.0452,2.0017,-2.5937,-0.5164,-0.4384,-2.0685
2025-05-24T06:13:20.422Z,-1.4616,0.7973,0.4766,18.0076,0.9095,-3.1582,-0.4693,-0.7074,-2.5737
2025-05-24T06:13:20.431Z,-1.397,0.9992,0.4509,16.9901,-1.0026,-2.8179,-0.5456,-0.8618,-3.1053
2025-05-24T06:13:20.442Z,-1.1121,1.2149,0.3171,13.3447,-3.1023,-1.0972,-0.5833,-0.549,-3.3933
2025-05-24T06:13:20.451Z,-0.0185,1.6159,-0.2565,0.8869,-7.344,5.0314,-0.121,0.9124,-2.5361
2025-05-24T06:13:20.461Z,2.0231,2.1946,-0.6595,-18.8396,-12.8616,8.0317,0.2003,2.5782,0.0483
2025-05-24T06:13:20.472Z,2.1814,2.2901,-0.4317,-15.9656,-12.8907,5.4671,0.2776,1.0866,1.975
2025-05-24T06:13:20.481Z,-0.3626,1.8018,0.1691,9.6404,-7.9322,-1.0591,-0.43,-2.1024,0.4001
2025-05-24T06:13:20.492Z,-1.7844,1.5209,0.9163,20.4918,-5.7477,-7.6865,-1.8815,-3.8392,-2.9158
2025-05-24T06:13:20.501Z,-0.9896,1.7958,0.7148,10.2127,-8.8697,-4.1344,-2.3235,-2.7421,-4.7402
2025-05-24T06:13:20.511Z,0.4137,2.1231,-0.0235,-2.5439,-11.3771,2.4535,-1.4422,-0.0582,-4.2425
2025-05-24T06:13:20.522Z,-0.1472,1.6533,0.4109,4.6113,-5.8056,-2.9314,-0.6847,-0.3005,-4.2927
2025-05-24T06:13:20.531Z,-0.744,0.9998,0.6802,8.2849,0.1829,-3.9997,-0.8957,-1.5526,-4.411
2025-05-24T06:13:20.542Z,-0.3253,0.6654,0.0675,3.9074,3.3757,2.1504,-0.895,0.6177,-3.3123
2025-05-24T06:13:20.552Z,-0.4431,0.3637,-0.1458,5.4545,6.182,3.6004,-0.895,0.6177,-3.3123
2025-05-24T06:13:20.562Z,-0.6947,0.3748,0.0806,7.185,5.488,1.198,-0.6148,1.4398,-2.8444
2025-05-24T06:13:20.573Z,-0.5028,0.8177,0.3174,4.6614,0.808,-0.8934,-0.5439,1.0832,-0.8241
2025-05-24T06:13:20.581Z,-0.1825,1.2912,0.4519,1.6995,-3.5335,-2.1481,-0.5439,1.0832,-0.8241
2025-05-24T06:13:20.592Z,-0.2025,1.3678,0.5556,2.2066,-3.7161,-2.9893,-0.1638,0.622,-0.134
2025-05-24T06:13:20.602Z,-0.2173,1.1814,0.4611,1.9423,-1.9288,-1.76,-0.2027,0.7689,-0.2011
2025-05-24T06:13:20.612Z,0.0133,1.0665,0.2345,-0.3795,-0.8429,0.4408,-0.2027,0.7689,-0.2011
2025-05-24T06:13:20.623Z,0.085,0.9623,0.1431,-0.8343,0.1177,1.1003,-0.2929,0.6572,-0.4324
2025-05-24T06:13:20.631Z,0.0248,0.9421,0.2395,-0.3343,0.1715,0.1025,-0.2929,0.6572,-0.4324
2025-05-24T06:13:20.642Z,0.0369,1.0031,0.2773,-0.581,-0.456,-0.0795,-0.2041,0.4537,-0.5025
2025-05-24T06:13:20.652Z,0.0454,1.045,0.222,-0.6595,-0.812,0.4623,-0.2754,0.6509,-0.5525
2025-05-24T06:13:20.668Z,-0.0117,1.0364,0.2503,-0.0934,-0.6892,0.0678,-0.2754,0.6509,-0.5525
2025-05-24T06:13:20.672Z,-0.0775,0.9949,0.3412,0.3945,-0.2603,-0.793,-0.1751,0.9818,-0.4115
2025-05-24T06:13:20.682Z,-0.0696,0.9345,0.3825,0.1834,0.3301,-1.0857,-0.1711,0.9739,-0.3585
2025-05-24T06:13:20.692Z,-0.0274,0.8886,0.338,-0.3118,0.7393,-0.5352,-0.2115,1.0254,-0.3793
2025-05-24T06:13:20.702Z,0.0215,0.8865,0.2598,-0.8162,0.7025,0.1943,-0.2032,0.9807,-0.413
2025-05-24T06:13:20.712Z,0.0241,0.9079,0.2626,-0.8623,0.4787,0.0666,-0.2032,0.9807,-0.413
2025-05-24T06:13:20.722Z,0.0244,0.9299,0.3084,-0.9628,0.2534,-0.3388,-0.1673,0.7438,-0.4612
2025-05-24T06:13:20.732Z,0.0325,0.9519,0.3051,-1.0762,0.0315,-0.2454,-0.1576,0.6907,-0.5369
2025-05-24T06:13:20.742Z,0.0086,0.9631,0.2895,-0.9092,-0.0633,-0.114,-0.1564,0.6727,-0.6323
2025-05-24T06:13:20.752Z,0.0039,0.966,0.2947,-0.9651,-0.102,-0.1563,-0.1556,0.6401,-0.7391
2025-05-24T06:13:20.763Z,0.008,0.9659,0.2953,-1.0819,-0.1233,-0.1567,-0.1465,0.5947,-0.861
2025-05-24T06:13:20.773Z,-0.0293,1.0044,0.2925,-1.0568,-0.2876,-0.1211,-0.1466,0.5613,-0.986
2025-05-24T06:13:20.782Z,-0.0293,1.0044,0.2925,-0.8796,-0.5627,-0.1031,-0.124,0.5322,-1.0272
2025-05-24T06:13:20.793Z,-0.14,1.0331,0.2413,-0.4521,-0.9749,0.2461,-0.1276,0.4936,-1.0571
2025-05-24T06:13:20.802Z,-0.14,1.0331,0.2413,-0.0565,-0.7876,0.3999,-0.1398,0.5031,-1.1078
2025-05-24T06:13:20.813Z,-0.1191,0.9965,0.235,-0.4275,-0.4654,0.4677,-0.1247,0.5295,-1.1521
2025-05-24T06:13:20.823Z,-0.1113,1.0326,0.2743,-0.6705,-0.5715,0.3964,-0.1187,0.5283,-1.1885
2025-05-24T06:13:20.832Z,-0.1113,1.0326,0.2743,-0.6971,-0.9249,0.0265,-0.1006,0.5544,-1.2279
2025-05-24T06:13:20.842Z,-0.1109,1.058,0.324,-0.7584,-1.0282,-0.3795,-0.0526,0.6595,-1.2762
2025-05-24T06:13:20.852Z,-0.1181,1.0943,0.3297,-0.9961,-1.2346,-0.4099,-0.0246,0.7694,-1.3186
2025-05-24T06:13:20.862Z,-0.1181,1.0943,0.3297,-1.0225,-1.6274,-0.5066,-0.0216,0.8816,-1.3648
2025-05-24T06:13:20.872Z,-0.1442,1.1581,0.3118,-0.8513,-2.0032,-0.5084,-0.0291,1.0298,-1.3965
2025-05-24T06:13:20.881Z,-0.1442,1.1581,0.3118,-1.1379,-2.2893,-0.3386,-0.019,1.1194,-1.4353
2025-05-24T06:13:20.892Z,-0.1267,1.1868,0.2986,-1.389,-2.3896,-0.3775,0.02,1.113,-1.4863
2025-05-24T06:13:20.902Z,-0.1309,1.2384,0.2732,-1.6198,-2.6859,-0.2629,0.0698,1.086,-1.568
2025-05-24T06:13:20.912Z,-0.1309,1.2384,0.2732,-1.7348,-3.2558,-0.0462,0.1016,1.1367,-1.6689
2025-05-24T06:13:20.922Z,-0.1165,1.3147,0.2131,-1.9663,-3.7886,0.2288,0.1354,1.1695,-1.7911
2025-05-24T06:13:20.932Z,-0.0821,1.307,0.1851,-2.2677,-4.0521,0.4411,0.1777,1.1269,-1.9145
2025-05-24T06:13:20.942Z,-0.0246,1.2819,0.1695,-2.8645,-4.0035,0.651,0.2214,1.0162,-2.0227
2025-05-24T06:13:20.952Z,0.0028,1.2514,0.1716,-3.6161,-3.813,0.7251,0.2522,0.8819,-2.1476
2025-05-24T06:13:20.962Z,0.0028,1.2514,0.1716,-4.054,-3.608,0.6426,0.2811,0.8081,-2.2999
2025-05-24T06:13:20.972Z,0.0338,1.2346,0.2038,-4.3505,-3.5315,0.6152,0.3,0.7961,-2.4433
2025-05-24T06:13:20.981Z,0.0585,1.2662,0.2701,-4.8234,-3.6807,0.1289,0.297,0.8205,-2.5598
2025-05-24T06:13:20.992Z,0.069,1.3076,0.3239,-5.2788,-4.1284,-0.5698,0.2933,0.9889,-2.6489
2025-05-24T06:13:21.001Z,0.0894,1.3643,0.3614,-5.6166,-4.6603,-1.1628,0.3037,1.3143,-2.691
2025-05-24T06:13:21.012Z,0.0894,1.3643,0.3614,-6.1128,-5.3825,-1.5898,0.3254,1.6948,-2.6448
2025-05-24T06:13:21.022Z,0.2541,1.576,0.4194,-7.0029,-6.4679,-1.9004,0.3377,2.106,-2.4667
2025-05-24T06:13:21.032Z,0.3344,1.6789,0.4182,-8.2842,-7.7686,-2.4571,0.3089,2.4803,-2.2454
2025-05-24T06:13:21.042Z,0.3,1.7478,0.3598,-9.1504,-8.8616,-2.4983,0.227,2.6885,-2.1664
2025-05-24T06:13:21.051Z,0.251,1.8006,0.3531,-8.9415,-9.626,-2.1053,0.1434,2.571,-2.2436
2025-05-24T06:13:21.062Z,0.2865,1.8915,0.4873,-8.7229,-10.2894,-2.3711,0.0346,1.9721,-2.3805
2025-05-24T06:13:21.072Z,0.3265,2.0355,0.5678,-9.3726,-11.4263,-3.8429,0.0942,1.0805,-2.5898
2025-05-24T06:13:21.081Z,0.412,2.1301,0.4486,-9.8796,-13.0031,-4.52,0.4509,1.0544,-2.6879
2025-05-24T06:13:21.092Z,0.7169,2.0436,0.4773,-11.2274,-13.9734,-3.3628,0.5234,1.3448,-2.5418
2025-05-24T06:13:21.102Z,0.8161,1.7767,0.6788,-14.3716,-12.9974,-4.1607,0.3772,0.7169,-2.3954
2025-05-24T06:13:21.113Z,0.6846,1.4817,0.7193,-15.1601,-10.4532,-6.0875,0.1101,-0.3026,-2.5151
2025-05-24T06:13:21.122Z,0.2732,1.1772,0.6786,-13.7359,-7.7505,-6.2636,-0.1285,-0.9331,-3.0585
2025-05-24T06:13:21.131Z,-0.0422,1.1155,0.6073,-9.677,-5.0676,-5.7453,-0.1872,-1.0133,-3.3228
2025-05-24T06:13:21.142Z,-0.2095,1.2325,0.6146,-7.2247,-5.2002,-5.0286,-0.1662,-0.9764,-3.4552
2025-05-24T06:13:21.151Z,-0.3869,1.104,0.3833,-5.5027,-6.406,-4.8839,0.021,-0.9126,-3.4725
2025-05-24T06:13:21.162Z,0.0649,0.9062,0.0336,-4.5925,-5.2113,-2.2868,0.2247,-0.1404,-2.6663
2025-05-24T06:13:21.172Z,0.3061,0.5821,-0.0777,-9.4865,-3.3824,1.069,0.2716,0.28,-1.3795
2025-05-24T06:13:21.181Z,0.1975,0.1895,-0.0588,-11.273,-0.1185,1.7574,0.2939,-0.1294,-0.0652
2025-05-24T06:13:21.192Z,0.0934,-0.0693,0.0003,-10.0337,3.7319,1.5272,0.273,-0.7408,1.177
2025-05-24T06:13:21.202Z,0.108,-0.0334,-0.0364,-9.136,6.0525,1.0988,0.2601,-0.94,2.2567
2025-05-24T06:13:21.212Z,-0.0278,0.1669,0.0014,-9.0382,5.5889,1.507,0.2377,-0.8057,2.6582
2025-05-24T06:13:21.222Z,-0.0151,0.3667,0.0641,-7.509,3.7701,1.0855,0.2132,-0.602,2.872
2025-05-24T06:13:21.231Z,0.0912,0.4723,0.147,-7.7413,2.1103,0.5301,0.1911,-0.7189,3.1181
2025-05-24T06:13:21.242Z,0.1276,0.4855,0.2159,-8.4898,1.4659,-0.2793,0.1736,-1.1203,3.4422
2025-05-24T06:13:21.252Z,0.1518,0.4646,0.2126,-8.5987,1.6637,-0.7835,0.1753,-1.4702,3.8255
2025-05-24T06:13:21.262Z,0.1051,0.4489,0.199,-8.4942,2.1725,-0.6104,0.1867,-1.7158,4.1696
2025-05-24T06:13:21.272Z,0.059,0.4837,0.1708,-7.6622,2.573,-0.3664,0.203,-1.8401,4.484
2025-05-24T06:13:21.281Z,0.0486,0.557,0.1533,-6.9127,2.4567,0.0237,0.223,-1.8949,4.7807
2025-05-24T06:13:21.292Z,0.0019,0.638,0.1468,-6.419,2.0295,0.257,0.2596,-1.9284,5.0371
2025-05-24T06:13:21.302Z,-0.0448,0.7461,0.1349,-5.475,1.5048,0.4418,0.3119,-1.9381,5.2844
2025-05-24T06:13:21.311Z,-0.0708,0.8675,0.1691,-4.5974,0.7017,0.5928,0.3804,-2.0132,5.5364
2025-05-24T06:13:21.322Z,-0.1914,0.9806,0.1813,-3.8119,-0.2165,0.2794,0.4648,-1.9484,5.7254
2025-05-24T06:13:21.331Z,-0.2947,1.0885,0.1504,-1.9865,-1.0414,0.292,0.5459,-1.6318,5.944
2025-05-24T06:13:21.342Z,-0.353,1.2027,0.1719,-0.518,-1.8673,0.5694,0.6352,-1.3259,6.1842
2025-05-24T06:13:21.352Z,-0.37,1.34,0.239,0.6235,-2.8035,0.2689,0.7215,-1.1655,6.4491
2025-05-24T06:13:21.361Z,-0.3387,1.4765,0.3268,1.3113,-3.9914,-0.4752,0.7883,-1.039,6.6856
2025-05-24T06:13:21.372Z,-0.3794,1.5631,0.3987,1.694,-5.1428,-1.3833,0.8671,-0.9898,6.7667
2025-05-24T06:13:21.381Z,-0.468,1.649,0.4992,2.8384,-5.8425,-2.1468,0.873,-1.1384,6.6597
2025-05-24T06:13:21.392Z,-0.6017,1.7645,0.6427,4.4176,-6.6571,-3.2944,0.7705,-1.3563,6.3542
2025-05-24T06:13:21.401Z,-0.7624,1.8999,0.6908,6.402,-7.8124,-4.7366,0.7097,-1.3509,5.9688
2025-05-24T06:13:21.411Z,-0.9018,2.0284,0.6382,8.5605,-9.1663,-5.1039,0.6967,-1.1325,5.6208
2025-05-24T06:13:21.422Z,-1.0152,2.1141,0.6003,10.4326,-10.457,-4.6473,0.5894,-1.0026,5.3195
2025-05-24T06:13:21.431Z,-1.1221,2.1024,0.5515,12.0389,-11.2934,-4.359,0.4159,-0.9332,5.0244
2025-05-24T06:13:21.443Z,-1.2088,1.9455,0.5386,14.7866,-9.5366,-3.9033,0.2935,-0.8275,4.7046
2025-05-24T06:13:21.452Z,-1.2433,1.7205,0.5437,14.7866,-9.5366,-3.9033,0.2141,-0.6692,4.3625
2025-05-24T06:13:21.461Z,-1.2799,1.5134,0.5824,15.5045,-7.4679,-4.0145,0.0319,-0.6026,3.9955
2025-05-24T06:13:21.473Z,-1.3832,1.3132,0.4984,17.7145,-3.7494,-3.3552,-0.0679,-0.3501,3.4901
2025-05-24T06:13:21.481Z,-1.5776,1.1178,0.3821,17.7145,-3.7494,-3.3552,-0.169,-0.0698,2.7838
2025-05-24T06:13:21.493Z,-1.6575,0.946,0.3598,20.604,-0.3917,-2.1472,-0.2411,0.231,1.9977
2025-05-24T06:13:21.502Z,-1.7238,0.8125,0.3802,20.604,-0.3917,-2.1472,-0.331,0.292,1.1468
2025-05-24T06:13:21.511Z,-1.7585,0.7326,0.4121,21.4064,0.834,-2.3818,-0.448,0.0969,0.2758
2025-05-24T06:13:21.523Z,-1.64,0.7027,0.3848,20.1809,1.8501,-2.2325,-0.5258,-0.052,-0.6391
2025-05-24T06:13:21.531Z,-1.4093,0.6916,0.3152,20.1809,1.8501,-2.2325,-0.5427,-0.15,-1.5685
2025-05-24T06:13:21.542Z,-1.1658,0.8408,0.289,15.2196,0.3706,-1.3511,-0.5771,-0.553,-2.3817
2025-05-24T06:13:21.552Z,-1.1102,1.0011,0.3476,14.5074,-1.0097,-1.8575,-0.6385,-1.2008,-3.1059
2025-05-24T06:13:21.561Z,-0.9911,1.1309,0.3027,14.5074,-1.0097,-1.8575,-0.6631,-1.5061,-3.5561
2025-05-24T06:13:21.573Z,-0.4995,1.3951,-0.0229,6.72,-5.0423,2.6038,-0.3438,-0.9273,-3.3332
2025-05-24T06:13:21.582Z,1.1601,1.9498,-0.7059,-10.9946,-10.7087,8.8672,0.2328,1.0605,-1.4428
2025-05-24T06:13:21.592Z,2.6868,2.3769,-0.6459,-23.1031,-14.1725,7.7172,0.2906,1.402,1.4876
2025-05-24T06:13:21.602Z,1.091,2.037,-0.4939,-3.8508,-10.1529,5.8839,0.06,-1.0756,1.6827
2025-05-24T06:13:21.612Z,-1.4005,1.5341,0.2924,18.6136,-5.5422,-2.5892,-0.9899,-3.4614,-1.2439
2025-05-24T06:13:21.622Z,-1.7005,1.5203,0.896,18.1787,-6.0747,-6.8767,-2.1258,-3.8249,-4.2566
2025-05-24T06:13:21.632Z,-0.1305,1.9601,0.284,1.85,-10.3211,-0.2185,-1.9669,-1.4117,-4.6435
2025-05-24T06:13:21.642Z,0.3155,1.9591,0.0882,0.0741,-9.192,0.4344,-1.1363,0.2101,-4.1807
2025-05-24T06:13:21.652Z,-0.7116,1.3419,0.6734,9.0685,-3.0143,-5.053,-0.8528,-1.0992,-4.501
2025-05-24T06:13:21.662Z,-0.4868,0.9497,0.5294,5.3797,0.5539,-2.5859,-1.0213,-1.6074,-4.2296
2025-05-24T06:13:21.672Z,-0.28,0.6352,0.1523,3.9594,3.7438,0.7979,-0.9588,-0.6836,-3.658
2025-05-24T06:13:21.681Z,-0.28,0.6352,0.1523,3.9594,3.7438,0.7979,-0.6869,0.2415,-3.2148
2025-05-24T06:13:21.692Z,-0.6753,0.4708,0.0993,6.8455,4.4815,1.1359,-0.4911,0.8656,-2.6032
2025-05-24T06:13:21.702Z,-0.5115,0.929,0.2115,5.0431,-0.1467,-0.0199,-0.5153,1.1846,-1.6535
2025-05-24T06:13:21.712Z,-0.4011,1.2931,0.3845,4.0199,-3.3871,-1.684,-0.5215,1.1832,-0.6454
2025-05-24T06:13:21.722Z,-0.34,1.3227,0.4944,3.2948,-3.2806,-2.5341,-0.3102,1.1032,-0.0884
2025-05-24T06:13:21.731Z,-0.1685,1.172,0.4032,1.5001,-1.8267,-1.3757,-0.1333,1.0347,0.1014
2025-05-24T06:13:21.742Z,0.0162,1.0778,0.1889,-0.225,-0.947,0.7286,-0.2055,0.9929,0.1149
2025-05-24T06:13:21.751Z,0.0559,0.9955,0.1092,-0.4336,-0.1722,1.2439,-0.3372,0.9975,0.0506
2025-05-24T06:13:21.762Z,0.0125,0.9638,0.2296,-0.0634,0.0402,0.0189,-0.3048,0.8502,-0.009
2025-05-24T06:13:21.772Z,0.0331,0.9875,0.282,-0.3484,-0.2212,-0.2943,-0.1952,0.68,-0.0054
2025-05-24T06:13:21.781Z,0.063,1.0081,0.2293,-0.6265,-0.3903,0.2707,-0.203,0.6041,-0.0167
2025-05-24T06:13:21.792Z,0.0605,0.992,0.2056,-0.5781,-0.2003,0.4315,-0.2676,0.6634,-0.0695
2025-05-24T06:13:21.801Z,0.0176,0.9584,0.2667,-0.1637,0.1246,-0.2244,-0.2542,0.8211,-0.1544
2025-05-24T06:13:21.812Z,-0.019,0.9321,0.3494,0.0774,0.3567,-0.9776,-0.1913,1.0215,-0.2345
2025-05-24T06:13:21.822Z,0.0174,0.9283,0.3786,-0.4041,0.3595,-1.1699,-0.16,1.2132,-0.2312
2025-05-24T06:13:21.831Z,0.0823,0.9343,0.3433,-1.0757,0.3114,-0.7529,-0.1702,1.3032,-0.1671
2025-05-24T06:13:21.842Z,0.1124,0.9167,0.2907,-1.3692,0.4982,-0.2561,-0.1611,1.2537,-0.1119
2025-05-24T06:13:21.851Z,0.1149,0.9144,0.2954,-1.3975,0.4758,-0.3829,-0.1111,1.0786,-0.0745
2025-05-24T06:13:21.862Z,0.1078,0.9376,0.3146,-1.3516,0.2423,-0.4957,-0.0961,0.8517,-0.0899
2025-05-24T06:13:21.872Z,0.1022,0.9536,0.2875,-1.3593,0.0885,-0.2231,-0.1052,0.685,-0.1568
2025-05-24T06:13:21.881Z,0.1191,0.9604,0.2768,-1.5896,0.021,-0.1429,-0.0985,0.6269,-0.2432
2025-05-24T06:13:21.892Z,0.1457,0.9823,0.2901,-1.8811,-0.2336,-0.2794,-0.0859,0.5547,-0.3412
2025-05-24T06:13:21.902Z,0.1074,1.0197,0.275,-1.4571,-0.5932,-0.037,-0.085,0.5031,-0.5412
2025-05-24T06:13:21.912Z,0.0499,1.051,0.2205,-1.0927,-0.8967,0.464,-0.1169,0.4941,-0.8159
2025-05-24T06:13:21.922Z,0.0875,1.0617,0.2319,-1.6518,-0.9827,0.2841,-0.1091,0.4323,-1.0602
2025-05-24T06:13:21.931Z,0.1115,1.0639,0.2455,-1.8797,-1.0049,0.2393,-0.0851,0.3529,-1.2514
2025-05-24T06:13:21.942Z,0.0224,1.0468,0.2169,-1.1025,-0.8613,0.4868,-0.113,0.2771,-1.4495
2025-05-24T06:13:21.952Z,-0.0343,1.0488,0.2329,-0.7679,-0.9123,0.313,-0.1136,0.2145,-1.5055
2025-05-24T06:13:21.962Z,-0.0783,1.0392,0.2492,-0.4478,-0.8075,0.1774,-0.1062,0.2793,-1.4973
2025-05-24T06:13:21.972Z,-0.1282,1.0317,0.2634,-0.1774,-0.7978,0.0092,-0.0929,0.4264,-1.5051
2025-05-24T06:13:21.981Z,-0.1089,1.0649,0.3005,-0.5895,-1.1925,-0.3746,-0.0643,0.6135,-1.5198
2025-05-24T06:13:21.992Z,-0.0795,1.1129,0.3386,-1.0039,-1.6769,-0.7319,-0.0732,0.7743,-1.54
2025-05-24T06:13:22.002Z,-0.0739,1.1409,0.3327,-1.2215,-1.9613,-0.6201,-0.0578,0.9215,-1.5868
2025-05-24T06:13:22.012Z,-0.0774,1.1554,0.2966,-1.3749,-2.1316,-0.2889,-0.0283,1.0296,-1.6769
2025-05-24T06:13:22.022Z,-0.0645,1.1741,0.2959,-1.7048,-2.3823,-0.3739,-0.0145,1.0723,-1.7713
2025-05-24T06:13:22.031Z,-0.0679,1.2121,0.3182,-1.8223,-2.8027,-0.5884,0.0138,1.0555,-1.8597
2025-05-24T06:13:22.042Z,-0.0917,1.247,0.2944,-1.8108,-3.1733,-0.3614,0.04,1.0647,-1.9575
2025-05-24T06:13:22.052Z,-0.0968,1.2654,0.2754,-1.9942,-3.3894,-0.2133,0.0883,1.1016,-2.0588
2025-05-24T06:13:22.061Z,-0.0889,1.2691,0.2318,-2.3173,-3.4843,0.2095,0.1221,1.1153,-2.1758
2025-05-24T06:13:22.072Z,-0.0574,1.264,0.1883,-2.8845,-3.4958,0.5507,0.1699,1.0827,-2.289
2025-05-24T06:13:22.081Z,-0.0148,1.2512,0.1568,-3.5457,-3.451,0.8243,0.2247,0.9783,-2.4331
2025-05-24T06:13:22.092Z,0.0297,1.2447,0.1221,-4.2261,-3.4919,1.0503,0.2362,0.8512,-2.5982
2025-05-24T06:13:22.102Z,0.0554,1.2564,0.1694,-4.6926,-3.7423,0.4384,0.2588,0.7387,-2.7544
2025-05-24T06:13:22.111Z,0.0377,1.2912,0.2491,-4.7545,-4.229,-0.3653,0.2442,0.7151,-2.8834
2025-05-24T06:13:22.122Z,0.0256,1.3317,0.3028,-4.9389,-4.7341,-0.9393,0.212,0.8567,-2.9556
2025-05-24T06:13:22.131Z,0.0389,1.3617,0.3548,-5.3739,-5.1685,-1.5383,0.2069,1.1316,-2.9738
2025-05-24T06:13:22.142Z,0.0812,1.3979,0.4099,-6.0949,-5.7073,-2.1542,0.1923,1.5279,-2.9449
2025-05-24T06:13:22.152Z,0.1626,1.4731,0.4377,-7.1963,-6.6423,-2.5299,0.1809,2.0072,-2.8563
2025-05-24T06:13:22.161Z,0.2639,1.5781,0.4617,-8.445,-7.8215,-2.9237,0.1831,2.5587,-2.647
2025-05-24T06:13:22.172Z,0.3604,1.6861,0.449,-9.5622,-9.019,-2.9067,0.1662,3.0677,-2.3576
2025-05-24T06:13:22.181Z,0.3551,1.7974,0.3821,-9.5625,-10.2306,-2.4938,0.1586,3.3015,-2.1622
2025-05-24T06:13:22.192Z,0.3174,1.9095,0.4385,-9.4703,-11.4681,-3.4598,0.1568,3.0035,-2.1036
2025-05-24T06:13:22.202Z,0.3004,2.0412,0.5502,-9.4085,-12.9641,-4.5315,0.1698,2.1567,-2.2429
2025-05-24T06:13:22.211Z,0.2447,2.1874,0.5647,-9.1406,-14.493,-4.7719,0.1404,1.4531,-2.5982
2025-05-24T06:13:22.222Z,0.4169,2.218,0.5173,-11.5894,-14.7706,-4.3517,0.4313,1.4164,-2.7266
2025-05-24T06:13:22.231Z,0.8952,2.052,0.565,-16.213,-13.0215,-5.146,0.5912,1.2495,-2.3878
2025-05-24T06:13:22.242Z,0.8652,1.694,0.6656,-15.385,-9.558,-6.0967,0.3398,0.3863,-2.3435
2025-05-24T06:13:22.252Z,0.474,1.2938,0.7414,-11.5349,-5.8564,-6.7653,-0.1672,-0.5546,-2.8568
2025-05-24T06:13:22.261Z,0.0208,0.9754,0.7519,-7.5152,-3.3616,-6.5302,-0.5059,-1.1649,-3.509
2025-05-24T06:13:22.272Z,0.0085,1.0671,0.6111,-8.1597,-4.9089,-5.0147,-0.4106,-1.264,-3.4833
2025-05-24T06:13:22.281Z,-0.0392,1.1379,0.441,-7.3249,-5.4701,-3.0844,-0.0332,-1.2793,-3.3727
2025-05-24T06:13:22.291Z,-0.1455,0.9422,0.1498,-7.0236,-3.6185,-0.0633,0.2289,-1.1658,-2.9771
2025-05-24T06:13:22.302Z,0.172,0.6917,-0.1328,-10.2351,-1.2433,2.4756,0.2708,-0.5914,-1.939
2025-05-24T06:13:22.311Z,0.2395,0.37,-0.1909,-10.4422,2.0186,2.8594,0.2671,-0.4641,-0.6371
2025-05-24T06:13:22.322Z,0.0583,0.0109,-0.0563,-8.6847,5.4469,1.5669,0.1952,-0.9549,0.5436
2025-05-24T06:13:22.331Z,0.1188,-0.0965,-0.0314,-9.3727,6.2897,1.5608,0.1561,-1.2543,1.8174
2025-05-24T06:13:22.341Z,0.0738,0.0494,-0.0069,-8.4084,4.9117,1.3094,0.1589,-1.3193,2.7235
2025-05-24T06:13:22.352Z,-0.0533,0.2391,0.0615,-7.2209,3.3351,0.7311,0.1859,-1.1467,3.0367
2025-05-24T06:13:22.361Z,0.033,0.3673,0.1079,-7.9765,2.4375,0.3311,0.1812,-0.9091,3.2172
2025-05-24T06:13:22.373Z,0.1056,0.4113,0.181,-8.3554,2.3499,-0.3642,0.1138,-1.4053,3.7892
2025-05-24T06:13:22.381Z,0.1391,0.4087,0.2467,-8.4168,2.6604,-0.7948,0.1138,-1.4053,3.7892
2025-05-24T06:13:22.394Z,0.151,0.4255,0.2167,-8.1176,2.7367,-0.322,0.1341,-1.799,4.4798
2025-05-24T06:13:22.401Z,0.0656,0.4794,0.1764,-6.8617,2.4743,0.1521,0.1341,-1.799,4.4798
2025-05-24T06:13:22.411Z,0.0014,0.5613,0.1361,-5.925,1.9415,0.6498,0.1275,-1.7743,4.7665
2025-05-24T06:13:22.423Z,-0.032,0.6449,0.109,-5.1584,1.4296,0.977,0.1796,-1.7269,5.3552
2025-05-24T06:13:22.431Z,-0.0639,0.7424,0.0864,-4.3724,0.7112,1.278,0.1796,-1.7269,5.3552
2025-05-24T06:13:22.445Z,-0.1152,0.8793,0.0669,-3.3599,-0.3878,1.5387,0.4049,-1.4968,5.8901
2025-05-24T06:13:22.452Z,-0.1595,1.021,0.025,-2.3624,-1.4756,1.9889,0.4887,-1.2051,6.1283
2025-05-24T06:13:22.461Z,-0.2395,1.1199,-0.001,-0.9951,-2.1789,2.1739,0.4887,-1.2051,6.1283
2025-05-24T06:13:22.472Z,-0.3015,1.2128,0.0437,0.1603,-2.886,1.647,0.5942,-1.1205,6.566
2025-05-24T06:13:22.481Z,-0.3255,1.315,0.1156,0.9918,-3.7117,0.908,0.5942,-1.1205,6.566
2025-05-24T06:13:22.495Z,-0.362,1.412,0.1885,2.0632,-4.5114,0.1652,0.7907,-1.0961,6.7218
2025-05-24T06:13:22.502Z,-0.4198,1.521,0.2493,3.2734,-5.5379,-0.5019,0.8678,-1.103,6.6346
2025-05-24T06:13:22.511Z,-0.4936,1.6841,0.303,4.7209,-7.1274,-1.0832,0.8678,-1.103,6.6346
2025-05-24T06:13:22.523Z,-0.644,1.8502,0.373,6.9014,-8.718,-1.9005,0.7703,-1.0515,6.0641
2025-05-24T06:13:22.532Z,-0.8269,1.9933,0.4401,9.274,-10.1082,-2.5681,0.6789,-0.9302,5.6872
2025-05-24T06:13:22.544Z,-1.1408,2.1686,0.4335,11.5057,-11.1974,-2.7888,0.6789,-0.9302,5.6872
2025-05-24T06:13:22.552Z,-1.1726,2.1542,0.3749,13.2981,-11.8587,-2.531,0.55,-0.8897,5.3136
2025-05-24T06:13:22.562Z,-1.1726,2.1542,0.3749,13.9967,-11.641,-2.0552,0.3835,-0.9254,4.76
2025-05-24T06:13:22.572Z,-1.1999,1.9665,0.3807,14.7992,-9.7299,-2.2466,0.3424,-0.9669,4.3758
2025-05-24T06:13:22.582Z,-1.2718,1.6976,0.4166,15.8595,-7.2281,-2.6464,0.2316,-0.98,3.8566
2025-05-24T06:13:22.593Z,-1.2857,1.455,0.4097,16.3024,-5.0248,-2.5604,0.1295,-1.0365,3.1957
2025-05-24T06:13:22.602Z,-1.3051,1.2703,0.3795,16.8082,-3.4151,-2.3517,-0.0193,-1.1834,2.4824
2025-05-24T06:13:22.612Z,-1.3645,1.1545,0.4151,17.6926,-2.4544,-2.7953,-0.0802,-1.1111,1.7645
2025-05-24T06:13:22.623Z,-1.718,0.9559,0.3222,19.2792,-1.9093,-2.3561,-0.0421,-0.7131,0.8536
2025-05-24T06:13:22.632Z,-1.718,0.9559,0.3222,21.4895,-0.4665,-1.9103,-0.1222,-0.3651,-0.1159
2025-05-24T06:13:22.644Z,-1.6788,0.7052,0.3391,22.0419,1.1165,-2.0142,-0.2944,-0.171,-0.8891
2025-05-24T06:13:22.653Z,-1.5003,0.7047,0.4372,20.5291,1.864,-2.1156,-0.3768,-0.0835,-1.5067
2025-05-24T06:13:22.662Z,-1.5003,0.7047,0.4372,18.6299,1.8287,-3.1314,-0.4162,0.024,-2.0781
2025-05-24T06:13:22.672Z,-1.2031,0.9396,0.5578,16.9701,0.9849,-4.0228,-0.4791,0.079,-2.5881
2025-05-24T06:13:22.681Z,-1.2031,0.9396,0.5578,15.2811,-0.445,-4.0432,-0.6046,-0.0477,-2.9754
2025-05-24T06:13:22.700Z,-0.7424,1.2019,0.423,13.1997,-1.7482,-3.8231,-0.5799,0.0777,-3.0949
2025-05-24T06:13:22.702Z,-0.7424,1.2019,0.423,9.762,-2.851,-2.2211,-0.1698,1.1362,-2.1883
2025-05-24T06:13:22.711Z,2.032,1.9663,-0.5205,-1.422,-6.1972,3.9678,-0.0119,2.3083,0.2706
2025-05-24T06:13:22.722Z,2.6533,2.0374,-0.1048,-18.8128,-10.506,6.4288,0.0346,1.3632,2.9259
2025-05-24T06:13:22.731Z,0.6988,1.6469,0.175,-21.5978,-10.5767,2.2084,-0.061,-1.6457,2.6366
2025-05-24T06:13:22.743Z,-1.3888,1.2993,0.4935,-0.1128,-6.5796,-0.4727,-1.2876,-3.6256,-0.5818
2025-05-24T06:13:22.752Z,-1.3,1.4519,0.4707,18.271,-3.5534,-3.5677,-2.1075,-2.9786,-3.426
2025-05-24T06:13:22.761Z,-1.3,1.4519,0.4707,14.2516,-5.6844,-2.3438,-1.6578,-0.4696,-3.8085
2025-05-24T06:13:22.772Z,0.3622,1.8317,0.2826,-1.2583,-9.9644,2.0751,-0.8856,0.161,-3.5949
2025-05-24T06:13:22.782Z,-0.4423,1.3484,0.7233,0.1432,-8.091,-1.6704,-0.8021,-1.0802,-3.7924
2025-05-24T06:13:22.793Z,-0.2613,1.0568,0.3871,6.6705,-3.4073,-5.0776,-1.0522,-1.4508,-3.5705
2025-05-24T06:13:22.802Z,-0.2873,0.791,0.1279,4.1602,-0.6326,-1.2345,-1.0691,-0.7874,-3.2844
2025-05-24T06:13:22.811Z,-0.2873,0.791,0.1279,4.6495,1.9879,0.9074,-0.7674,0.1762,-3.0979
2025-05-24T06:13:22.822Z,-0.4699,0.6689,0.2319,6.0651,3.4849,0.5799,-0.4647,0.6911,-2.7269
2025-05-24T06:13:22.831Z,-0.3075,0.8917,0.2631,5.4801,2.7317,-0.1255,-0.4773,0.742,-1.9311
2025-05-24T06:13:22.843Z,-0.188,1.1187,0.2976,3.6236,0.4377,-0.3045,-0.5883,0.7405,-0.9411
2025-05-24T06:13:22.852Z,-0.3219,1.1859,0.3831,2.6064,-1.6543,-0.6748,-0.4252,0.8282,-0.309
2025-05-24T06:13:22.861Z,-0.3475,1.1473,0.341,4.0818,-2.1332,-1.4283,-0.4252,0.8282,-0.309
2025-05-24T06:13:22.872Z,-0.0583,1.1095,0.1526,3.8118,-1.7092,-0.73,-0.3045,1.0346,0.0391
2025-05-24T06:13:22.881Z,0.1051,1.0572,0.1213,0.9088,-1.3602,1.1268,-0.4674,1.08,-0.0343
2025-05-24T06:13:22.892Z,0.1513,1.0169,0.2473,-0.505,-0.8323,1.2005,-0.416,0.9602,-0.1269
2025-05-24T06:13:22.902Z,0.1688,1.0025,0.3427,-0.9405,-0.4928,-0.0526,-0.2584,0.6839,-0.1233
2025-05-24T06:13:22.912Z,0.1801,0.9945,0.3171,-1.1205,-0.3719,-0.8226,-0.2446,0.6194,-0.1264
2025-05-24T06:13:22.922Z,0.1169,0.9644,0.2872,-1.2231,-0.2833,-0.4481,-0.3074,0.8048,-0.2387
2025-05-24T06:13:22.931Z,0.047,0.9453,0.3395,-0.5492,0.0249,-0.2161,-0.2981,1.0895,-0.359
2025-05-24T06:13:22.942Z,0.0786,0.9218,0.3708,-0.0545,0.1759,-0.7399,-0.2097,1.3158,-0.3845
2025-05-24T06:13:22.951Z,0.1463,0.8712,0.3438,-0.5018,0.4401,-0.9477,-0.1763,1.323,-0.3807
2025-05-24T06:13:22.961Z,0.1463,0.8712,0.3438,-1.2695,0.9316,-0.6261,-0.2179,1.1883,-0.3641
2025-05-24T06:13:22.972Z,0.2339,0.8725,0.3361,-1.9346,1.086,-0.4371,-0.2114,0.9987,-0.3465
2025-05-24T06:13:22.981Z,0.2141,0.9179,0.3321,-2.1532,0.8114,-0.5702,-0.1387,0.8017,-0.3866
2025-05-24T06:13:22.992Z,0.1639,0.9752,0.2972,-1.9735,0.3432,-0.4721,-0.1224,0.6158,-0.5555
2025-05-24T06:13:23.002Z,0.1438,1.034,0.2444,-1.5571,-0.2266,-0.0845,-0.1766,0.526,-0.8015
2025-05-24T06:13:23.011Z,0.1122,1.0719,0.2379,-1.491,-0.7965,0.4248,-0.211,0.5085,-1.0756
2025-05-24T06:13:23.022Z,0.0603,1.0787,0.2829,-1.2363,-1.1455,0.4281,-0.1896,0.4602,-1.2457
2025-05-24T06:13:23.031Z,0.0355,1.0412,0.318,-0.901,-1.1659,-0.0247,-0.1552,0.3312,-1.2391
2025-05-24T06:13:23.042Z,-0.0311,0.9963,0.2946,-0.7605,-0.773,-0.2812,-0.1581,0.293,-1.1892
2025-05-24T06:13:23.051Z,-0.0793,0.9547,0.2518,-0.1877,-0.3472,-0.0022,-0.1491,0.4746,-1.1957
2025-05-24T06:13:23.061Z,-0.0784,0.9611,0.2626,0.0884,0.0197,0.405,-0.1156,0.507,-1.2623
2025-05-24T06:13:23.071Z,-0.0472,1.0145,0.2859,-0.1087,-0.128,0.2337,-0.0901,0.5004,-1.2838
2025-05-24T06:13:23.081Z,-0.0449,1.0532,0.2923,-0.5493,-0.6852,0.0437,-0.097,0.4789,-1.2813
2025-05-24T06:13:23.092Z,-0.0934,1.0507,0.2825,-0.6338,-1.0381,-0.0091,-0.1069,0.5067,-1.298
2025-05-24T06:13:23.102Z,-0.1244,1.0523,0.2794,-0.277,-0.9973,0.1142,-0.1054,0.607,-1.3124
2025-05-24T06:13:23.111Z,-0.1339,1.0765,0.3241,-0.1437,-1.0717,0.0984,-0.0944,0.74,-1.3127
2025-05-24T06:13:23.122Z,-0.106,1.0888,0.3343,-0.2391,-1.3335,-0.3672,-0.0589,0.8865,-1.3249
2025-05-24T06:13:23.131Z,-0.075,1.0937,0.3393,-0.6947,-1.4545,-0.4104,-0.032,0.9986,-1.3965
2025-05-24T06:13:23.142Z,-0.0659,1.113,0.3611,-1.1247,-1.5347,-0.5242,-0.0107,1.052,-1.4864
2025-05-24T06:13:23.151Z,-0.0511,1.1298,0.3544,-1.3867,-1.7641,-0.7295,0.0028,1.0727,-1.5487
2025-05-24T06:13:23.162Z,-0.0741,1.1332,0.3274,-1.6814,-1.9431,-0.6583,0.016,1.0817,-1.6274
2025-05-24T06:13:23.172Z,-0.0959,1.1457,0.2541,-1.5849,-2.0186,-0.382,0.0356,1.0886,-1.7178
2025-05-24T06:13:23.181Z,-0.0812,1.1663,0.1995,-1.6228,-2.1877,0.3471,0.0873,1.0802,-1.8162
2025-05-24T06:13:23.192Z,-0.0707,1.2006,0.1828,-1.9628,-2.4482,0.7656,0.1219,0.9909,-1.9323
2025-05-24T06:13:23.202Z,-0.0379,1.2358,0.1564,-2.287,-2.8665,0.9027,0.1542,0.9097,-2.047
2025-05-24T06:13:23.211Z,-0.0248,1.249,0.1658,-2.8319,-3.2414,1.0981,0.2055,0.8212,-2.1892
2025-05-24T06:13:23.222Z,-0.0106,1.2511,0.1844,-3.14,-3.4085,0.9172,0.2145,0.7449,-2.3481
2025-05-24T06:13:23.231Z,0.014,1.2417,0.2044,-3.5393,-3.5031,0.7062,0.2295,0.7061,-2.4921
2025-05-24T06:13:23.242Z,0.0074,1.2323,0.2532,-3.9846,-3.4864,0.4243,0.2539,0.6939,-2.6203
2025-05-24T06:13:23.252Z,0.0101,1.2512,0.3003,-4.1456,-3.5098,-0.1122,0.2441,0.7671,-2.6997
2025-05-24T06:13:23.261Z,0.0171,1.2793,0.3444,-4.4459,-3.8401,-0.6323,0.2452,0.9423,-2.7461
2025-05-24T06:13:23.272Z,0.0466,1.3287,0.3677,-4.7716,-4.2414,-1.1116,0.2643,1.1925,-2.7572
2025-05-24T06:13:23.281Z,0.1165,1.4086,0.3864,-5.3717,-4.882,-1.3866,0.2866,1.4924,-2.7116
2025-05-24T06:13:23.294Z,0.2187,1.5049,0.4455,-7.6234,-6.9042,-2.4436,0.2975,1.8099,-2.5534
2025-05-24T06:13:23.302Z,0.317,1.6076,0.4661,-7.6234,-6.9042,-2.4436,0.2633,2.1399,-2.3239
2025-05-24T06:13:23.311Z,0.367,1.7025,0.4155,-8.7785,-8.0328,-2.6718,0.196,2.4746,-2.1361
2025-05-24T06:13:23.323Z,0.3567,1.776,0.3896,-9.461,-9.8854,-2.2595,0.1391,2.5775,-2.076
2025-05-24T06:13:23.331Z,0.3411,1.8605,0.3883,-9.461,-9.8854,-2.2595,0.0267,2.2713,-2.1996
2025-05-24T06:13:23.343Z,0.3146,1.9933,0.4391,-9.4396,-12.4099,-3.09,-0.121,1.6273,-2.5103
2025-05-24T06:13:23.352Z,0.2714,2.1091,0.4727,-9.3,-13.641,-3.2114,0.0334,1.02,-2.9441
2025-05-24T06:13:23.361Z,0.4807,2.1102,0.2766,-9.3,-13.641,-3.2114,0.4032,1.3631,-3.0829
2025-05-24T06:13:23.373Z,0.8408,1.8997,0.3105,-15.5414,-11.5416,-2.2846,0.4291,1.4319,-2.9552
2025-05-24T06:13:23.381Z,0.8944,1.5944,0.5583,-15.5414,-11.5416,-2.2846,0.1757,0.5063,-2.8264
2025-05-24T06:13:23.394Z,0.6675,1.2693,0.7233,-13.4393,-5.7292,-6.0982,-0.1746,-0.6114,-2.9534
2025-05-24T06:13:23.402Z,0.1251,0.988,0.7767,-8.216,-3.4747,-6.3525,-0.5715,-1.3186,-3.3145
2025-05-24T06:13:23.411Z,-0.1071,1.022,0.6042,-8.216,-3.4747,-6.3525,-0.5599,-1.3399,-3.3119
2025-05-24T06:13:23.422Z,-0.1005,1.1295,0.5663,-6.6381,-5.4577,-3.9628,-0.3999,-0.8908,-3.2151
2025-05-24T06:13:23.432Z,-0.2963,0.9495,0.2834,-5.3953,-3.6812,-0.8296,-0.0568,-0.662,-3.0052
2025-05-24T06:13:23.443Z,0.0947,0.6965,-0.0969,-9.7365,-1.339,2.6902,0.0887,-0.0115,-1.9621
2025-05-24T06:13:23.452Z,0.4011,0.4093,-0.244,-12.0837,1.5977,3.8025,0.0684,0.3458,-0.3398
2025-05-24T06:13:23.461Z,0.1968,0.0849,-0.1134,-12.0837,1.5977,3.8025,-0.0184,-0.1395,1.1278
2025-05-24T06:13:23.472Z,0.1725,0.0226,-0.0322,-9.7883,5.1448,1.7734,0.0004,-0.4763,2.3339
2025-05-24T06:13:23.481Z,0.208,0.214,0.0184,-9.7883,5.1448,1.7734,0.0682,-0.4993,2.9329
2025-05-24T06:13:23.493Z,0.1577,0.4467,0.1022,-9.1444,1.3967,0.4484,0.1442,-0.4369,3.1886
2025-05-24T06:13:23.502Z,0.159,0.5613,0.1917,-8.9536,0.6881,-0.4172,0.1917,-0.5842,3.3098
2025-05-24T06:13:23.512Z,0.1352,0.5768,0.2591,-8.4419,0.8525,-0.9286,0.187,-0.9349,3.4705
2025-05-24T06:13:23.522Z,0.1282,0.5661,0.2546,-8.1631,1.2572,-0.734,0.2004,-1.3032,3.8133
2025-05-24T06:13:23.532Z,0.1405,0.5458,0.2061,-7.8979,1.7377,-0.1416,0.2367,-1.5347,4.2583
2025-05-24T06:13:23.543Z,0.0924,0.5576,0.1596,-7.0225,1.8649,0.3736,0.2818,-1.6689,4.626
2025-05-24T06:13:23.552Z,0.0496,0.6263,0.1265,-6.2189,1.4136,0.7584,0.3017,-1.7058,4.8864
2025-05-24T06:13:23.561Z,-0.0047,0.7422,0.1125,-5.192,0.5249,0.9335,0.3275,-1.7505,5.0876
2025-05-24T06:13:23.573Z,-0.0952,0.8743,0.125,-3.8161,-0.4854,0.8644,0.3818,-1.7913,5.3028
2025-05-24T06:13:23.581Z,-0.1799,1.0012,0.1493,-2.5185,-1.4518,0.6391,0.4909,-1.7579,5.5494
2025-05-24T06:13:23.593Z,-0.2552,1.1186,0.1883,-1.2169,-2.3406,0.2697,0.6163,-1.7449,5.8095
2025-05-24T06:13:23.601Z,-0.3426,1.2212,0.1987,0.21,-3.0826,0.2238,0.7128,-1.6144,6.0379
2025-05-24T06:13:23.612Z,-0.3961,1.3077,0.1752,1.2588,-3.7299,0.3601,0.7817,-1.2887,6.2472
2025-05-24T06:13:23.621Z,-0.4346,1.3892,0.2549,2.2728,-4.3708,-0.5636,0.8223,-1.0501,6.3867
2025-05-24T06:13:23.631Z,-0.4546,1.4927,0.3312,3.0288,-5.2791,-1.3427,0.8888,-0.8972,6.4844
2025-05-24T06:13:23.643Z,-0.4688,1.5864,0.418,3.8707,-6.0797,-2.3081,0.944,-0.9963,6.4722
2025-05-24T06:13:23.651Z,-0.5487,1.6864,0.4932,5.3609,-7.0462,-3.0675,0.8988,-1.3044,6.272
2025-05-24T06:13:23.661Z,-0.6863,1.7968,0.5327,7.325,-8.0937,-3.4978,0.776,-1.5366,5.8888
2025-05-24T06:13:23.671Z,-0.8116,1.868,0.5244,9.0257,-8.7694,-3.4194,0.7163,-1.5509,5.5005
2025-05-24T06:13:23.681Z,-0.8739,1.9087,0.4812,10.1026,-9.182,-3.1052,0.7189,-1.467,5.2551
2025-05-24T06:13:23.692Z,-0.9074,1.9111,0.4738,10.929,-9.2273,-3.1503,0.6804,-1.4856,5.1214
2025-05-24T06:13:23.701Z,-0.9438,1.8655,0.4679,11.792,-8.8081,-3.1809,0.5927,-1.5011,5.0213
2025-05-24T06:13:23.711Z,-0.9962,1.7461,0.4978,12.7672,-7.69,-3.6178,0.4875,-1.4281,4.8581
2025-05-24T06:13:23.722Z,-1.0371,1.6075,0.562,13.5896,-6.4794,-4.3496,0.3803,-1.1641,4.525
2025-05-24T06:13:23.731Z,-1.0747,1.4709,0.6437,14.2621,-5.2464,-5.1632,0.1413,-1.2422,4.0616
2025-05-24T06:13:23.748Z,-1.0813,1.3232,0.5887,14.7686,-3.9694,-4.3621,-0.0252,-1.1946,3.5436
2025-05-24T06:13:23.751Z,-1.2858,1.2078,0.3946,17.2243,-2.9517,-2.61,-0.026,-1.1491,2.9368
2025-05-24T06:13:23.761Z,-1.5171,1.0644,0.3168,19.5904,-1.5499,-1.9328,-0.0535,-0.816,2.1748
2025-05-24T06:13:23.772Z,-1.6847,0.8656,0.2979,21.2351,0.3668,-1.865,-0.1837,-0.4763,1.2691
2025-05-24T06:13:23.781Z,-1.7438,0.7022,0.3448,21.6687,1.8612,-2.3253,-0.3119,-0.3539,0.3379
2025-05-24T06:13:23.792Z,-1.6994,0.6307,0.3761,21.0715,2.4601,-2.5923,-0.3591,-0.3001,-0.5546
2025-05-24T06:13:23.802Z,-1.5697,0.6786,0.3743,19.545,1.9108,-2.4827,-0.418,-0.3706,-1.3381
2025-05-24T06:13:23.811Z,-1.3604,0.8127,0.3291,17.3147,0.6278,-1.989,-0.5266,-0.4746,-2.0691
2025-05-24T06:13:23.822Z,-1.2205,0.964,0.3094,15.7981,-0.734,-1.8982,-0.5862,-0.5998,-2.709
2025-05-24T06:13:23.831Z,-1.1026,1.1041,0.3869,14.2644,-2.0073,-2.6199,-0.6288,-0.6487,-3.1716
2025-05-24T06:13:23.842Z,-0.7429,1.3024,0.2772,9.7906,-4.0431,-1.0129,-0.5038,-0.1072,-3.1844
2025-05-24T06:13:23.852Z,0.488,1.7371,-0.2479,-3.753,-8.5698,4.4065,-0.0034,1.5654,-1.9345
2025-05-24T06:13:23.861Z,2.1879,2.2405,-0.4051,-19.2018,-13.2101,5.1157,0.1944,2.8283,0.6805
2025-05-24T06:13:23.872Z,1.6254,2.2157,-0.1699,-9.7342,-12.2165,2.6749,0.1772,1.0243,1.8633
2025-05-24T06:13:23.881Z,-0.8672,1.8305,0.3413,14.3499,-8.5212,-2.8148,-0.6396,-2.161,-0.3394
2025-05-24T06:13:23.892Z,-1.7731,1.8113,0.8506,19.5624,-8.9764,-6.7387,-1.8605,-3.5741,-3.5614
2025-05-24T06:13:23.902Z,-0.1225,2.2286,0.1094,1.4732,-12.8622,1.8093,-1.7716,-1.3052,-4.3482
2025-05-24T06:13:23.911Z,0.7011,2.0118,-0.3123,-3.4796,-9.393,4.1328,-1.1051,0.8463,-3.8964
2025-05-24T06:13:23.922Z,-0.4929,1.177,0.4854,7.6826,-1.2932,-3.8095,-1.1691,-0.4497,-4.1039
2025-05-24T06:13:23.931Z,-0.5482,0.6944,0.7581,6.4091,3.1167,-5.2475,-1.4558,-1.7083,-4.138
2025-05-24T06:13:23.942Z,-0.1928,0.344,0.3323,2.9962,6.5547,-0.6357,-1.0697,-0.9321,-3.7649
2025-05-24T06:13:23.952Z,-0.3134,0.1053,-0.0139,4.4825,8.5431,2.2352,-0.4982,0.3637,-3.2963
2025-05-24T06:13:23.961Z,-0.6722,0.3529,0.0659,7.4422,5.3845,1.3321,-0.5282,0.5997,-2.8138
2025-05-24T06:13:23.972Z,-0.5599,1.0213,0.1306,5.6146,-1.2299,0.7694,-0.7158,0.863,-1.9939
2025-05-24T06:13:23.981Z,-0.3693,1.4478,0.3525,4.0021,-4.872,-1.644,-0.6224,1.1021,-1.1238
2025-05-24T06:13:23.992Z,-0.4005,1.4845,0.6189,4.2092,-4.8813,-3.8819,-0.3698,0.8594,-0.4711
2025-05-24T06:13:24.002Z,-0.2345,1.2947,0.4736,2.2702,-2.8587,-1.9841,-0.1813,0.6921,-0.0925
2025-05-24T06:13:24.011Z,-0.0044,1.0588,0.1695,0.1619,-0.5835,0.9149,-0.2693,0.7914,0.034
2025-05-24T06:13:24.022Z,0.0651,0.8772,0.0681,-0.4062,1.0477,1.6202,-0.4261,1.0562,-0.0934
2025-05-24T06:13:24.031Z,0.068,0.8565,0.2066,-0.4735,1.0243,0.1277,-0.3805,0.9618,-0.1861
2025-05-24T06:13:24.042Z,0.0981,0.9544,0.3339,-0.8293,0.016,-0.8725,-0.2402,0.5891,-0.1719
2025-05-24T06:13:24.052Z,0.1001,1.0326,0.2653,-0.7792,-0.6581,-0.0248,-0.2221,0.4682,-0.1986
2025-05-24T06:13:24.061Z,0.0327,1.0317,0.1754,-0.1664,-0.5837,0.7869,-0.3237,0.616,-0.3515
2025-05-24T06:13:24.072Z,0.0227,0.9897,0.2051,-0.2473,-0.1674,0.3572,-0.3698,0.8314,-0.4748
2025-05-24T06:13:24.081Z,0.0611,0.9458,0.3369,-0.6769,0.2541,-0.9451,-0.3051,0.9527,-0.4818
2025-05-24T06:13:24.092Z,0.0827,0.9122,0.4276,-0.9513,0.5608,-1.6794,-0.2111,0.9463,-0.4059
2025-05-24T06:13:24.102Z,0.0967,0.8881,0.3923,-1.0874,0.7801,-1.2025,-0.1722,0.884,-0.3456
2025-05-24T06:13:24.111Z,0.0593,0.8844,0.3172,-0.7604,0.7599,-0.4615,-0.189,0.8338,-0.376
2025-05-24T06:13:24.122Z,0.0521,0.9311,0.2649,-0.8242,0.2435,0.0431,-0.2113,0.8366,-0.4392
2025-05-24T06:13:24.131Z,0.0658,0.9855,0.2247,-1.0071,-0.2524,0.4384,-0.2139,0.8147,-0.4985
2025-05-24T06:13:24.142Z,0.0684,1.0036,0.2181,-1.0979,-0.4105,0.4579,-0.212,0.7065,-0.5799
2025-05-24T06:13:24.152Z,0.0685,1.0068,0.2455,-1.1743,-0.4371,0.1937,-0.2268,0.5431,-0.6767
2025-05-24T06:13:24.161Z,0.0693,1.002,0.2717,-1.2577,-0.3984,-0.0227,-0.2298,0.4139,-0.7497
2025-05-24T06:13:24.172Z,0.0415,0.9952,0.2798,-1.0257,-0.3612,-0.0929,-0.2031,0.3451,-0.8229
2025-05-24T06:13:24.181Z,-0.0146,1.0072,0.3078,-0.5609,-0.4919,-0.3427,-0.2,0.3146,-0.9173
2025-05-24T06:13:24.192Z,-0.0664,1.0028,0.2892,-0.175,-0.4235,-0.1045,-0.1803,0.3869,-0.956
2025-05-24T06:13:24.202Z,-0.1082,0.9833,0.2804,0.116,-0.2525,-0.0446,-0.1725,0.4002,-0.9449
2025-05-24T06:13:24.211Z,-0.1193,0.9792,0.2716,0.0909,-0.244,0.1052,-0.1842,0.4083,-0.9243
2025-05-24T06:13:24.223Z,-0.1051,0.9811,0.2411,-0.1823,-0.2815,0.3766,-0.1694,0.5881,-0.9548
2025-05-24T06:13:24.231Z,-0.0728,0.9864,0.2596,-0.5931,-0.3663,0.1412,-0.1694,0.5881,-0.9548
2025-05-24T06:13:24.242Z,-0.0706,1.0155,0.3003,-0.678,-0.6825,-0.2474,-0.1224,0.5754,-0.9981
2025-05-24T06:13:24.253Z,-0.0927,1.0388,0.3123,-0.5859,-0.9125,-0.3042,-0.0951,0.5876,-1.1409
2025-05-24T06:13:24.261Z,-0.0801,1.0416,0.2894,-0.891,-0.9222,-0.0799,-0.0951,0.5876,-1.1409
2025-05-24T06:13:24.273Z,-0.0659,1.0259,0.2974,-1.1137,-0.801,-0.2212,-0.0455,0.757,-1.2539
2025-05-24T06:13:24.281Z,-0.0692,1.036,0.3342,-1.2184,-0.9719,-0.5807,-0.0455,0.757,-1.2539
2025-05-24T06:13:24.293Z,-0.0837,1.0778,0.3331,-1.1765,-1.4186,-0.5232,-0.0209,0.8974,-1.3687
2025-05-24T06:13:24.302Z,-0.1321,1.1054,0.3059,-0.8516,-1.6881,-0.2852,-0.0322,1.0321,-1.4399
2025-05-24T06:13:24.311Z,-0.1483,1.1101,0.3105,-0.9029,-1.7529,-0.4001,-0.0322,1.0321,-1.4399
2025-05-24T06:13:24.322Z,-0.1448,1.1171,0.318,-1.1196,-1.8869,-0.4607,0.0465,1.0687,-1.5408
2025-05-24T06:13:24.331Z,-0.1361,1.1597,0.3059,-1.3637,-2.3823,-0.3784,0.0465,1.0687,-1.5408
2025-05-24T06:13:24.342Z,-0.1316,1.2189,0.291,-1.5742,-3.0085,-0.2581,0.1232,1.1746,-1.7155
2025-05-24T06:13:24.352Z,-0.1508,1.2704,0.2627,-1.5541,-3.5424,-0.0185,0.1679,1.1712,-1.8538
2025-05-24T06:13:24.362Z,-0.1446,1.3046,0.226,-1.8966,-3.9024,0.3132,0.2085,1.073,-1.9801
2025-05-24T06:13:24.372Z,-0.0791,1.3123,0.1803,-2.7597,-4.0157,0.7025,0.2319,0.8468,-2.121
2025-05-24T06:13:24.382Z,-0.0322,1.3109,0.1474,-3.3899,-4.0812,0.9491,0.2892,0.6551,-2.2616
2025-05-24T06:13:24.392Z,-0.0086,1.3248,0.1287,-3.8167,-4.3297,1.0548,0.3263,0.5721,-2.4171
2025-05-24T06:13:24.402Z,-0.0114,1.3658,0.1466,-3.9805,-4.8376,0.7864,0.307,0.6506,-2.5798
2025-05-24T06:13:24.412Z,-0.0274,1.4139,0.1857,-4.0722,-5.4095,0.324,0.3018,0.8107,-2.6845
2025-05-24T06:13:24.422Z,-0.0263,1.437,0.2446,-4.3601,-5.7017,-0.3346,0.3131,0.9745,-2.6892
2025-05-24T06:13:24.432Z,0.0162,1.4212,0.3101,-5.0724,-5.6254,-1.0567,0.2984,1.226,-2.6395
2025-05-24T06:13:24.442Z,0.0789,1.3896,0.3779,-5.9313,-5.4589,-1.8014,0.3052,1.5276,-2.531
2025-05-24T06:13:24.452Z,0.2124,1.4357,0.4827,-6.6988,-5.6133,-2.4265,0.302,1.8758,-2.3377
2025-05-24T06:13:24.462Z,0.2124,1.4357,0.4827,-7.7195,-6.2517,-3.0453,0.2557,2.3265,-2.1022
2025-05-24T06:13:24.473Z,0.3171,1.565,0.4208,-8.5757,-7.0583,-3.1811,0.1865,2.7913,-1.9178
2025-05-24T06:13:24.482Z,0.3171,1.565,0.4208,-9.0329,-7.7051,-2.6257,0.1516,2.9056,-1.8685
2025-05-24T06:13:24.492Z,0.2933,1.6045,0.3711,-8.9,-8.2215,-2.4003,0.107,2.4731,-2.0383
2025-05-24T06:13:24.502Z,0.237,1.86,0.4975,-8.3418,-9.2679,-2.9551,0.0013,1.7477,-2.3134
2025-05-24T06:13:24.512Z,0.237,1.86,0.4975,-8.8815,-11.1994,-3.9853,0.0467,1.0993,-2.6628
2025-05-24T06:13:24.522Z,0.4599,2.1367,0.4502,-9.3848,-13.1415,-4.5474,0.3713,1.2846,-2.7519
2025-05-24T06:13:24.531Z,0.7507,2.008,0.5089,-11.8261,-13.9897,-3.5433,0.3713,1.2846,-2.7519
2025-05-24T06:13:24.542Z,0.7507,2.008,0.5089,-14.5781,-12.628,-4.5551,0.2589,0.73,-2.5532
2025-05-24T06:13:24.552Z,0.6222,1.3897,0.702,-14.7795,-9.883,-6.1241,-0.0184,-0.1205,-2.7604
2025-05-24T06:13:24.561Z,0.6222,1.3897,0.702,-13.0639,-6.8313,-6.2127,-0.2826,-0.6418,-3.309
2025-05-24T06:13:24.572Z,-0.0337,1.1067,0.5963,-8.0605,-4.2077,-6.5881,-0.1681,-0.6205,-3.3158
2025-05-24T06:13:24.582Z,0.0461,1.1667,0.467,-7.851,-5.2384,-4.7949,-0.0625,-0.4281,-3.1048
2025-05-24T06:13:24.592Z,0.0461,1.1667,0.467,-8.0326,-5.6199,-3.6433,0.0596,-0.4241,-2.8095
2025-05-24T06:13:24.602Z,0.234,0.6882,-0.0637,-6.2508,-3.3997,-1.2019,0.1466,0.0934,-1.7412
2025-05-24T06:13:24.611Z,0.234,0.6882,-0.0637,-11.1562,-1.1321,1.607,0.2049,0.2662,-0.2512
2025-05-24T06:13:24.622Z,0.289,0.0784,-0.0459,-13.2543,1.8296,2.1766,0.1898,-0.4129,1.0204
2025-05-24T06:13:24.632Z,0.1974,-0.0312,0.0047,-10.6758,4.9402,1.1404,0.1671,-0.977,2.0897
2025-05-24T06:13:24.642Z,0.1974,-0.0312,0.0047,-9.9832,5.8688,0.8256,0.1676,-0.9725,2.679
2025-05-24T06:13:24.652Z,0.1625,0.2851,0.0752,-9.8051,4.7013,0.8028,0.178,-0.9289,2.9585
2025-05-24T06:13:24.661Z,0.1625,0.2851,0.0752,-9.2409,3.0376,0.1455,0.1428,-1.2082,3.1383
2025-05-24T06:13:24.672Z,0.1073,0.4668,0.3157,-9.087,1.9166,-1.0918,0.0826,-1.6538,3.3148
2025-05-24T06:13:24.681Z,0.066,0.4471,0.3032,-8.1444,2.0006,-1.9117,0.0935,-2.0257,3.6526
2025-05-24T06:13:24.692Z,0.066,0.4471,0.3032,-7.6105,2.434,-1.5419,0.1465,-2.166,4.1636
2025-05-24T06:13:24.702Z,0.104,0.4956,0.2236,-7.6702,2.5656,-0.8589,0.1768,-2.229,4.633
2025-05-24T06:13:24.712Z,0.0852,0.5531,0.1965,-7.2207,2.4803,-0.552,0.2102,-2.2304,4.9798
2025-05-24T06:13:24.722Z,0.0463,0.6312,0.1695,-6.6272,2.196,-0.1419,0.2486,-2.2088,5.2105
2025-05-24T06:13:24.731Z,-0.0348,0.7229,0.1709,-5.7244,1.7153,0.1855,0.3144,-2.194,5.3883
2025-05-24T06:13:24.742Z,-0.0912,0.8442,0.1852,-4.4472,1.0734,0.229,0.4083,-2.162,5.6262
2025-05-24T06:13:24.752Z,-0.1461,0.9862,0.2126,-3.4147,0.1119,0.146,0.4985,-2.1239,5.8986
2025-05-24T06:13:24.761Z,-0.2384,1.1409,0.2317,-2.263,-1.0501,-0.1021,0.5587,-1.9406,6.1409
2025-05-24T06:13:24.772Z,-0.3442,1.2987,0.255,-0.7569,-2.3518,-0.2352,0.5928,-1.6665,6.3234
2025-05-24T06:13:24.781Z,-0.4344,1.4337,0.3353,0.9121,-3.6841,-0.5487,0.6599,-1.3566,6.4372
2025-05-24T06:13:24.797Z,-0.4737,1.5408,0.4088,2.3446,-4.8005,-1.3983,0.7681,-1.0735,6.5039
2025-05-24T06:13:24.801Z,-0.5412,1.6732,0.4684,3.3613,-5.7376,-2.1465,0.8248,-0.9537,6.4943
2025-05-24T06:13:24.811Z,-0.6333,1.8131,0.5511,4.6979,-6.9837,-2.8021,0.7723,-1.0575,6.3627
2025-05-24T06:13:24.821Z,-0.7321,1.9175,0.6273,6.2388,-8.2998,-3.7131,0.6751,-1.223,6.0919
2025-05-24T06:13:24.831Z,-0.8391,1.9586,0.6422,7.8142,-9.2639,-4.4715,0.5988,-1.2917,5.7333
2025-05-24T06:13:24.842Z,-0.925,1.9463,0.6048,9.4199,-9.6054,-4.6037,0.4643,-1.295,5.4054
2025-05-24T06:13:24.852Z,-0.9744,1.8908,0.5536,10.7617,-9.5008,-4.2624,0.2987,-1.2921,5.1277
2025-05-24T06:13:24.861Z,-0.9654,1.7971,0.5279,11.6672,-8.9985,-3.8036,0.2175,-1.2637,4.9027
2025-05-24T06:13:24.872Z,-0.9769,1.7008,0.5497,12.0178,-8.1597,-3.6805,0.1828,-1.2682,4.6621
2025-05-24T06:13:24.881Z,-1.0157,1.647,0.534,12.6349,-7.3782,-3.9352,0.0709,-1.2617,4.3872
2025-05-24T06:13:24.892Z,-1.0989,1.5741,0.4998,13.45,-7.0117,-3.7773,-0.0834,-1.1566,3.9937
2025-05-24T06:13:24.902Z,-1.2011,1.4027,0.5033,14.6911,-6.3423,-3.48,-0.2525,-0.9563,3.443
2025-05-24T06:13:24.911Z,-1.2549,1.2238,0.4496,15.9639,-4.6966,-3.6003,-0.3167,-0.8841,2.8987
2025-05-24T06:13:24.922Z,-1.3688,1.0607,0.2638,16.7112,-3.1221,-2.7992,-0.2675,-0.6412,2.2374
2025-05-24T06:13:24.931Z,-1.5948,0.9029,0.2519,18.1664,-1.5767,-1.1116,-0.2899,-0.3458,1.3442
2025-05-24T06:13:24.942Z,-1.752,0.8057,0.2702,20.5512,-0.1725,-1.1367,-0.4114,-0.0528,0.3191
2025-05-24T06:13:24.952Z,-1.7219,0.7168,0.3014,21.8375,0.7589,-1.2426,-0.5027,0.155,-0.6506
2025-05-24T06:13:24.961Z,-1.6217,0.7168,0.3513,21.3544,1.6052,-1.5785,-0.5347,0.1058,-1.4778
2025-05-24T06:13:24.972Z,-1.3922,0.819,0.3279,20.0887,1.5259,-1.9212,-0.6076,0.0309,-2.026
2025-05-24T06:13:24.981Z,-1.153,0.9361,0.2868,17.5364,0.5463,-1.607,-0.6317,-0.0175,-2.4356
2025-05-24T06:13:24.992Z,-1.085,1.0836,0.2874,15.1186,-0.5232,-1.1544,-0.6139,-0.2648,-2.9122
2025-05-24T06:13:25.001Z,-0.9589,1.219,0.2797,14.3485,-1.8952,-1.1939,-0.6453,-0.406,-3.2578
2025-05-24T06:13:25.011Z,-0.1436,1.4953,-0.2209,12.3937,-3.1139,-0.8483,-0.2355,0.5002,-2.6765
2025-05-24T06:13:25.025Z,1.8704,2.0498,-0.8013,-17.6889,-11.65,9.4883,0.1427,2.5838,-0.2387
2025-05-24T06:13:25.031Z,2.9994,2.268,-0.3184,-17.6889,-11.65,9.4883,0.1988,2.2625,2.8236
2025-05-24T06:13:25.042Z,0.7659,1.8862,-0.0683,-25.0562,-13.0306,4.4638,0.1898,-1.005,2.4803
2025-05-24T06:13:25.052Z,-1.7976,1.5347,0.4513,0.2069,-8.9727,2.018,-1.203,-3.5044,-1.2368
2025-05-24T06:13:25.061Z,-1.378,1.813,0.4707,22.4171,-6.0273,-3.1657,-2.0953,-2.9446,-4.1175
2025-05-24T06:13:25.075Z,0.6354,2.2281,0.0493,-4.5955,-12.6553,1.525,-1.7171,-0.0684,-4.0012
2025-05-24T06:13:25.081Z,0.2135,1.8015,0.5038,-4.5955,-12.6553,1.525,-1.1141,-0.0755,-3.9782
2025-05-24T06:13:25.092Z,-0.5483,1.2592,0.8798,2.1035,-7.5872,-3.6967,-0.9448,-1.4537,-4.2773
2025-05-24T06:13:25.102Z,-0.1508,0.9548,0.4659,7.1998,-2.6175,-6.1908,-0.9026,-1.5638,-4.0345
2025-05-24T06:13:25.111Z,-0.2649,0.5733,0.1611,3.0389,0.4437,-1.808,-0.8639,-0.6828,-3.6872
2025-05-24T06:13:25.125Z,-0.5278,0.3282,0.0557,6.4861,6.2828,1.7724,-0.7181,0.3328,-3.3997
2025-05-24T06:13:25.131Z,-0.5297,0.4683,0.1966,6.4861,6.2828,1.7724,-0.5464,0.9576,-2.9105
2025-05-24T06:13:25.143Z,-0.3006,0.8803,0.3596,3.35,0.3173,-1.2152,-0.4673,1.2091,-2.0534
2025-05-24T06:13:25.152Z,-0.2303,1.2066,0.4822,3.35,0.3173,-1.2152,-0.377,1.0438,-1.1256
2025-05-24T06:13:25.161Z,-0.3613,1.3398,0.4608,2.8997,-2.6157,-2.2889,-0.2258,0.6376,-0.3966
2025-05-24T06:13:25.175Z,-0.323,1.3133,0.2428,3.381,-3.242,0.5057,-0.2351,0.6246,-0.0222
2025-05-24T06:13:25.181Z,-0.0926,1.1163,0.0584,3.381,-3.242,0.5057,-0.3929,1.0173,0.019
2025-05-24T06:13:25.193Z,0.0324,0.9754,0.1075,-0.0201,-0.0711,1.4178,-0.4305,1.2888,-0.1486
2025-05-24T06:13:25.203Z,0.1142,0.9796,0.2646,-0.8945,-0.2365,-0.0652,-0.3067,0.9584,-0.1944
2025-05-24T06:13:25.211Z,0.1956,1.0227,0.3364,-0.8945,-0.2365,-0.0652,-0.237,0.4748,-0.1024
2025-05-24T06:13:25.224Z,0.1341,1.0179,0.3361,-0.8328,-0.5215,-0.5657,-0.2966,0.5582,-0.1153
2025-05-24T06:13:25.231Z,-0.0146,0.9694,0.3672,-0.8328,-0.5215,-0.5657,-0.2985,1.0894,-0.2506
2025-05-24T06:13:25.242Z,-0.0236,0.921,0.3832,0.3059,0.4142,-0.9422,-0.204,1.4654,-0.3241
2025-05-24T06:13:25.253Z,0.0816,0.8874,0.343,-0.8414,0.7173,-0.4857,-0.1987,1.4657,-0.3
2025-05-24T06:13:25.261Z,0.1616,0.8744,0.3006,-0.8414,0.7173,-0.4857,-0.2346,1.3059,-0.2644
2025-05-24T06:13:25.274Z,0.1328,0.8899,0.3283,-1.2415,0.6259,-0.4192,-0.2039,1.0994,-0.2534
2025-05-24T06:13:25.281Z,0.0885,0.9202,0.3436,-1.2415,0.6259,-0.4192,-0.1461,0.9433,-0.2817
2025-05-24T06:13:25.293Z,0.1097,0.9562,0.3105,-1.2307,-0.0437,-0.1453,-0.1239,0.8992,-0.3347
2025-05-24T06:13:25.302Z,0.1116,0.9908,0.3063,-1.2894,-0.3829,-0.1287,-0.1458,0.8354,-0.4386
2025-05-24T06:13:25.312Z,0.1003,1.012,0.3081,-1.2461,-0.5624,-0.1187,-0.1556,0.7634,-0.5801
2025-05-24T06:13:25.324Z,0.0735,1.0085,0.3026,-1.0688,-0.506,-0.0505,-0.1478,0.7438,-0.7765
2025-05-24T06:13:25.332Z,0.0593,0.9834,0.2985,-1.0752,-0.2514,0.0047,-0.1388,0.754,-0.9805
2025-05-24T06:13:25.342Z,0.0491,0.9502,0.2927,-1.1077,0.0502,0.0328,-0.1339,0.7169,-1.1528
2025-05-24T06:13:25.352Z,0.0572,0.9442,0.3135,-1.3246,0.0529,-0.1499,-0.131,0.5272,-1.2456
2025-05-24T06:13:25.362Z,0.0481,0.9686,0.3072,-1.338,-0.2214,-0.0574,-0.1192,0.3498,-1.3193
2025-05-24T06:13:25.373Z,-0.0004,1.0047,0.2977,-0.9395,-0.6049,0.0557,-0.1154,0.2682,-1.3887
2025-05-24T06:13:25.382Z,-0.0709,1.0382,0.2762,-0.3967,-0.9349,0.2684,-0.1177,0.289,-1.4159
2025-05-24T06:13:25.392Z,-0.1355,1.0592,0.2633,0.0972,-1.1395,0.3933,-0.1298,0.3799,-1.3947
2025-05-24T06:13:25.402Z,-0.1847,1.0496,0.2594,0.3779,-1.0327,0.4268,-0.1587,0.5865,-1.363
2025-05-24T06:13:25.412Z,-0.1724,1.0245,0.2592,0.0167,-0.8287,0.3865,-0.1236,0.8175,-1.3434
2025-05-24T06:13:25.423Z,-0.111,1.0299,0.309,-0.7483,-0.9397,-0.1571,-0.0741,0.9192,-1.3671
2025-05-24T06:13:25.432Z,-0.0579,1.058,0.3517,-1.4052,-1.2499,-0.528,-0.0494,0.9249,-1.438
2025-05-24T06:13:25.442Z,-0.0352,1.0715,0.3556,-1.7328,-1.3864,-0.5735,-0.0275,0.9136,-1.5246
2025-05-24T06:13:25.451Z,-0.0721,1.0838,0.3607,-1.4985,-1.5762,-0.6287,0.0084,0.8951,-1.634
2025-05-24T06:13:25.461Z,-0.111,1.1244,0.3302,-1.3414,-2.0281,-0.2973,0.006,0.9191,-1.7139
2025-05-24T06:13:25.472Z,-0.1255,1.1475,0.2977,-1.4014,-2.2549,-0.0732,0.031,1.0114,-1.7709
2025-05-24T06:13:25.481Z,-0.1301,1.1593,0.294,-1.584,-2.4369,-0.0719,0.092,1.068,-1.8376
2025-05-24T06:13:25.492Z,-0.0938,1.1855,0.281,-2.1866,-2.7458,0.0229,0.1252,1.0906,-1.909
2025-05-24T06:13:25.501Z,-0.0502,1.2071,0.2784,-2.7876,-3.01,-0.0216,0.1742,1.0526,-1.9895
2025-05-24T06:13:25.511Z,-0.0409,1.2316,0.2799,-3.0537,-3.3485,-0.0606,0.1943,0.9535,-2.0897
2025-05-24T06:13:25.522Z,-0.0467,1.2736,0.2667,-3.2078,-3.83,0.0331,0.1835,0.8927,-2.2194
2025-05-24T06:13:25.531Z,-0.0596,1.2898,0.2427,-3.3219,-4.0179,0.2115,0.1922,0.9115,-2.3742
2025-05-24T06:13:25.541Z,-0.0428,1.2682,0.2319,-3.7925,-3.8819,0.2326,0.1827,0.9392,-2.5098
2025-05-24T06:13:25.551Z,-0.001,1.2398,0.2512,-4.4119,-3.7238,-0.0455,0.1754,0.9657,-2.6074
2025-05-24T06:13:25.561Z,0.0006,1.2334,0.2953,-4.6718,-3.8181,-0.5696,0.1561,1.0486,-2.7028
2025-05-24T06:13:25.572Z,0.037,1.2657,0.3589,-5.3431,-4.3171,-1.2949,0.1368,1.2532,-2.7585
2025-05-24T06:13:25.581Z,0.0897,1.3348,0.4356,-6.0891,-5.1551,-2.1122,0.0784,1.545,-2.7594
2025-05-24T06:13:25.592Z,0.1233,1.4083,0.4602,-6.6807,-6.0195,-2.3591,0.0065,1.9239,-2.7122
2025-05-24T06:13:25.602Z,0.1794,1.5005,0.4245,-7.5594,-7.1117,-2.1429,-0.004,2.348,-2.6012
2025-05-24T06:13:25.611Z,0.3038,1.6308,0.4152,-9.046,-8.5623,-2.2499,0.0166,2.6795,-2.3768
2025-05-24T06:13:25.622Z,0.3783,1.7779,0.4152,-9.8011,-10.1387,-2.3708,0.0202,2.7098,-2.1635
2025-05-24T06:13:25.631Z,0.3209,1.9283,0.3917,-9.4042,-11.7388,-2.3047,-0.0568,2.547,-2.1448
2025-05-24T06:13:25.642Z,0.3035,2.0645,0.3563,-9.4785,-13.1978,-2.0612,-0.0958,2.2833,-2.2879
2025-05-24T06:13:25.652Z,0.2724,2.1382,0.3682,-9.3722,-13.9636,-2.3608,0.0517,1.9079,-2.5878
2025-05-24T06:13:25.661Z,0.4255,2.1219,0.2635,-11.6469,-13.879,-1.3861,0.5663,2.3109,-2.6214
2025-05-24T06:13:25.672Z,0.8727,1.9955,0.3168,-16.0386,-12.5914,-2.6273,0.8295,2.3579,-2.2481
2025-05-24T06:13:25.681Z,1.0114,1.7396,0.6533,-17.0502,-10.1332,-6.0228,0.7021,1.2367,-1.8431
2025-05-24T06:13:25.692Z,0.7602,1.4584,0.8219,-14.2513,-7.4961,-7.3108,0.3474,-0.4129,-1.8408
2025-05-24T06:13:25.702Z,0.216,1.1315,0.8095,-8.878,-4.4136,-7.033,-0.0961,-1.6271,-2.4816
2025-05-24T06:13:25.711Z,-0.1994,0.9065,0.6912,-5.782,-2.9057,-5.3588,-0.1518,-2.1621,-3.106
2025-05-24T06:13:25.722Z,0.0013,1.0328,0.5554,-7.7404,-4.4556,-4.1602,-0.0227,-1.9283,-3.1021
2025-05-24T06:13:25.731Z,-0.2907,0.9881,0.388,-4.9342,-3.9386,-2.0574,0.1515,-2.2974,-3.1661
2025-05-24T06:13:25.742Z,-0.0286,0.8056,0.0703,-8.5534,-2.2989,1.2206,0.271,-1.9494,-2.5338
2025-05-24T06:13:25.752Z,0.4535,0.579,-0.0933,-12.7144,0.0023,2.5242,0.4185,-1.1434,-1.211
2025-05-24T06:13:25.761Z,0.3216,0.2075,-0.0497,-10.804,3.8067,1.9779,0.6055,-1.0842,0.0806
2025-05-24T06:13:25.772Z,0.1097,-0.084,0.0162,-9.0183,6.4359,1.5944,0.7673,-1.3912,1.2403
2025-05-24T06:13:25.781Z,0.1298,-0.0466,-0.0154,-8.9961,5.9353,1.9331,0.8167,-1.4293,2.3667
2025-05-24T06:13:25.792Z,0.0201,0.1581,0.0302,-7.6368,4.1306,1.4276,0.7781,-1.2366,2.908
2025-05-24T06:13:25.802Z,-0.0323,0.3402,0.1126,-7.1259,2.6629,0.6559,0.7347,-1.0038,3.0928
2025-05-24T06:13:25.811Z,0.033,0.4591,0.1919,-7.5318,1.834,-0.1055,0.7349,-0.9559,3.2875
2025-05-24T06:13:25.822Z,0.0544,0.5092,0.2542,-7.4445,1.6884,-0.6158,0.7623,-1.1602,3.5973
2025-05-24T06:13:25.831Z,0.0671,0.5403,0.2551,-7.2431,1.6489,-0.5301,0.7817,-1.3664,4.0242
2025-05-24T06:13:25.842Z,0.0363,0.5868,0.2473,-6.5306,1.4888,-0.4397,0.7805,-1.4664,4.4474
2025-05-24T06:13:25.852Z,0.0043,0.6368,0.2467,-5.8612,1.306,-0.3983,0.7828,-1.5014,4.8174
2025-05-24T06:13:25.861Z,-0.0265,0.6936,0.2397,-5.0978,1.021,-0.3038,0.8019,-1.5096,5.1083
2025-05-24T06:13:25.872Z,-0.0811,0.7955,0.2343,-4.0927,0.2538,-0.2459,0.8067,-1.5676,5.3356
2025-05-24T06:13:25.881Z,-0.1225,0.9289,0.2943,-3.2073,-0.7837,-0.9234,0.7554,-1.7941,5.5458
2025-05-24T06:13:25.892Z,-0.1762,1.0705,0.4077,-2.0429,-1.9241,-2.0279,0.7605,-2.2376,5.7105
2025-05-24T06:13:25.902Z,-0.319,1.2056,0.4743,-0.0971,-3.023,-2.5241,0.8371,-2.2895,5.7857
2025-05-24T06:13:25.911Z,-0.3779,1.3394,0.4782,1.0128,-4.0807,-2.6762,0.9469,-2.0324,5.8504
2025-05-24T06:13:25.922Z,-0.4472,1.4118,0.5427,2.1923,-4.5987,-3.299,0.9944,-1.9887,5.8512
2025-05-24T06:13:25.931Z,-0.3885,1.494,0.5408,2.123,-5.2884,-3.3198,0.9645,-1.9728,5.9409
2025-05-24T06:13:25.942Z,-0.3843,1.5472,0.5797,2.8775,-5.645,-3.8134,0.9575,-1.9437,6.009
2025-05-24T06:13:25.952Z,-0.4768,1.5768,0.6022,4.3813,-5.9083,-4.0439,0.9996,-1.8205,5.9797
2025-05-24T06:13:25.961Z,-0.5416,1.6507,0.5697,5.589,-6.6599,-3.787,0.9813,-1.5428,5.9284
2025-05-24T06:13:25.972Z,-0.6007,1.7343,0.5372,6.7602,-7.4707,-3.5859,0.9277,-1.1829,5.8939
2025-05-24T06:13:25.981Z,-0.6885,1.8058,0.5447,8.2231,-8.2121,-3.8061,0.8459,-0.855,5.8133
2025-05-24T06:13:25.991Z,-0.7667,1.8747,0.5821,9.4681,-8.9675,-4.252,0.7415,-0.6422,5.6783
